Folder: Julia/20191129/matning1

File: CVTESTKRISTALL4BOX5.DTA
EXPLAIN
TAG	CV
TITLE	LABEL	CV	Test &Identifier
DATE	LABEL	11/29/2019	Date
TIME	LABEL	10:53:55	Time
NOTES	NOTES	1	&Notes...

PSTAT	PSTAT	REF600-16093	Potentiostat
VINIT	POTEN	0.00000E+000	T	Initial &E (V)
VLIMIT1	POTEN	8.00000E-001	F	Scan Limit &1 (V)
VLIMIT2	POTEN	-6.00000E-001	F	Scan Limit &2 (V)
VFINAL	POTEN	0.00000E+000	T	Final &E (V)
SCANRATE	QUANT	4.99999E+001	&Scan Rate (mV/s)
STEPSIZE	QUANT	1.00000E+000	St&ep Size (mV)
CYCLES	IQUANT	5	C&ycles (#)
IMODE	SELECTOR	1	I/E Range &Mode
IRANGE	QUANT	1.00000E+000	&Max Current (mA)
AREA	QUANT	1.00000E+000	Electrode &Area (cm^2)
ELECTRODETYPE	SELECTOR	0	Electrode Type
STRIPPING	TOGGLE	F	Used for Stripping
POLARITY	TOGGLE	F	Signal Polarity
CONDIT	TWOPARAM	F	1.50000E+001	0.00000E+000	Conditionin&g	Time(s)	E(V)
DELAY	TWOPARAM	T	5.00000E+000	0.00000E+000	Init. De&lay	Time(s)	Stab.(mV/s)
EQDELAY	QUANT	3.00000E+000	Equil. &Time (s)
IRCOMP	SELECTOR	0	IRCom&p
PFCOR	QUANT	0.00000E+000	PF Corr. (ohm)
SAMPLINGMODE	SELECTOR	2	Sampling &Mode
OCVCURVE	TABLE	20
	Pt	T	Vf	Vm	Ach	Over
	#	s	V vs. Ref.	V	V	bits
	0	0.25	1.17940E-001	1.17940E-001	7.26420E-005	...........
	1	0.5	1.17997E-001	1.20927E-001	8.53918E-005	...........
	2	0.75	1.18184E-001	1.15245E-001	8.69751E-005	...........
	3	1	1.18660E-001	1.35151E-001	9.08501E-005	...........
	4	1.25	1.19788E-001	1.12976E-001	9.28917E-005	...........
	5	1.5	1.21448E-001	1.32981E-001	8.35585E-005	...........
	6	1.75	1.23147E-001	1.31854E-001	8.59751E-005	...........
	7	2	1.25222E-001	1.34467E-001	8.48918E-005	...........
	8	2.25	1.27714E-001	1.17883E-001	8.68085E-005	...........
	9	2.5	1.29289E-001	1.37069E-001	8.77668E-005	...........
	10	2.75	1.29157E-001	1.13208E-001	8.45168E-005	...........
	11	3	1.27897E-001	1.32727E-001	8.31419E-005	...........
	12	3.25	1.26591E-001	1.31587E-001	8.78085E-005	...........
	13	3.5	1.26572E-001	1.35806E-001	7.43087E-005	...........
	14	3.75	1.28075E-001	1.18328E-001	8.71835E-005	...........
	15	4	1.29381E-001	1.32484E-001	6.86838E-005	...........
	16	4.25	1.29035E-001	1.15466E-001	8.66418E-005	...........
	17	4.5	1.27421E-001	1.32134E-001	7.36837E-005	...........
	18	4.75	1.25609E-001	1.12030E-001	9.28084E-005	...........
	19	5	1.24175E-001	1.33945E-001	8.03086E-005	...........
EOC	QUANT	0.1241748	Open Circuit (V)
PSTATMODEL	IQUANT	4	Pstat Model
PSTATSECTION	LABEL	REF600-16093	Pstat Section
PSTATSERIALNO	LABEL	16093	Pstat Serial Number
CTRLMODE	IQUANT	1	Control Mode
IESTAB	IQUANT	2	I/E Stability
CASPEED	IQUANT	2	Control Amp Speed
CONVENTION	IQUANT	1	Current Convention
ICHRANGE	IQUANT	2	Ich Range
ICHRANGEMODE	TOGGLE	F	Ich Auto Range
ICHOFFSETENABLE	TOGGLE	F	Ich Offset Enable
ICHOFFSET	QUANT	0	Ich Offset (V)
ICHFILTER	IQUANT	2	Ich Filter
VCHRANGE	IQUANT	2	Vch Range
VCHRANGEMODE	TOGGLE	F	Vch Auto Range
VCHOFFSETENABLE	TOGGLE	F	Vch Offset Enable
VCHOFFSET	QUANT	0	Vch Offset (V)
VCHFILTER	IQUANT	2	Vch Filter
ACHRANGE	IQUANT	2	Ach Range
ACHOFFSETENABLE	TOGGLE	F	Ach Offset Enable
ACHOFFSET	QUANT	0	Ach Offset (V)
ACHFILTER	IQUANT	1	Ach Filter
IERANGELOWERLIMIT	IQUANT	1	I/E Range Lower Limit
IERANGEMODE	TOGGLE	F	I/E AutoRange
IERANGE	IQUANT	9	I/E Range
POSFEEDENABLE	TOGGLE	F	Positive Feedback IR Comp
POSFEEDRESISTANCE	QUANT	0	Positive Feedback Resistance (ohm)
ACHSELECT	IQUANT	0	Ach Select
CABLEID	IQUANT	14	Cable ID
DCCALDATE	LABEL	11/5/2019	DC Calibration Date
ACCALDATE	LABEL		AC Calibration Date
THERMOSELECT	IQUANT	1	Thermo Select
FRAMEWORKVERSION	QUANT	6.12	Framework Version
INSTRUMENTVERSION	LABEL	3.11	Instrument Version
CURVE1	TABLE
	Pt	T	Vf	Im	Vu	Sig	Ach	IERange	Over
	#	s	V vs. Ref.	A	V	V	V	#	bits
	0	0.02	1.23784E-001	-4.00541E-007	0.00000E+000	1.24150E-001	7.91409E-005	9	...........
	19	0.4	1.42748E-001	-2.66925E-007	0.00000E+000	1.43150E-001	7.56381E-005	9	...........
	38	0.78	1.61746E-001	-3.76854E-007	0.00000E+000	1.62150E-001	8.15596E-005	9	...........
	57	1.16	1.80798E-001	-2.27891E-007	0.00000E+000	1.81150E-001	7.84737E-005	9	...........
	76	1.54	1.99909E-001	3.03572E-007	0.00000E+000	2.00150E-001	7.88073E-005	9	...........
	95	1.92	2.18788E-001	1.08902E-007	0.00000E+000	2.19150E-001	8.27272E-005	9	...........
	114	2.3	2.37640E-001	2.45855E-007	0.00000E+000	2.38150E-001	7.61385E-005	9	...........
	133	2.68	2.56604E-001	2.76381E-007	0.00000E+000	2.57150E-001	8.02252E-005	9	...........
	152	3.06	2.75622E-001	3.31596E-007	0.00000E+000	2.76150E-001	7.32194E-005	9	...........
	171	3.44	2.94595E-001	6.71726E-007	0.00000E+000	2.95150E-001	7.83903E-005	9	...........
	190	3.82	3.13613E-001	6.65887E-007	0.00000E+000	3.14150E-001	7.85571E-005	9	...........
	209	4.2	3.32766E-001	5.80313E-007	0.00000E+000	3.33150E-001	7.83903E-005	9	...........
	228	4.58	3.51529E-001	5.42613E-007	0.00000E+000	3.52150E-001	7.66389E-005	9	...........
	247	4.96	3.70553E-001	7.11760E-007	0.00000E+000	3.71150E-001	7.92243E-005	9	...........
	266	5.34	3.89500E-001	8.57054E-007	0.00000E+000	3.90150E-001	7.46373E-005	9	...........
	285	5.72	4.08529E-001	9.31285E-007	0.00000E+000	4.09150E-001	7.98082E-005	9	...........
	304	6.1	4.27604E-001	1.55967E-006	0.00000E+000	4.28150E-001	6.87158E-005	9	...........
	323	6.48	4.46588E-001	1.79587E-006	0.00000E+000	4.47150E-001	7.45539E-005	9	...........
	342	6.86	4.65609E-001	2.14134E-006	0.00000E+000	4.66150E-001	7.62219E-005	9	...........
	361	7.24	4.84519E-001	1.56384E-006	0.00000E+000	4.85150E-001	8.11426E-005	9	...........
	380	7.62	5.03404E-001	1.68911E-006	0.00000E+000	5.04150E-001	8.26438E-005	9	...........
	399	8	5.22385E-001	1.82506E-006	0.00000E+000	5.23150E-001	7.89741E-005	9	...........
	418	8.38	5.41382E-001	2.27245E-006	0.00000E+000	5.42150E-001	7.68891E-005	9	...........
	437	8.76	5.60365E-001	1.91965E-006	0.00000E+000	5.61150E-001	7.64721E-005	9	...........
	456	9.14	5.79384E-001	1.97386E-006	0.00000E+000	5.80150E-001	8.21434E-005	9	...........
	475	9.52	5.98401E-001	2.12699E-006	0.00000E+000	5.99150E-001	7.58883E-005	9	...........
	494	9.9	6.17400E-001	2.07878E-006	0.00000E+000	6.18150E-001	8.02252E-005	9	...........
	513	10.28	6.36330E-001	2.95238E-006	0.00000E+000	6.37150E-001	7.86405E-005	9	...........
	532	10.66	6.55276E-001	3.10451E-006	0.00000E+000	6.56150E-001	9.29022E-005	9	...........
	551	11.04	6.74247E-001	4.24884E-006	0.00000E+000	6.75150E-001	8.64803E-005	9	...........
	570	11.42	6.93259E-001	4.09204E-006	0.00000E+000	6.94150E-001	8.12260E-005	9	...........
	589	11.8	7.12274E-001	5.66457E-006	0.00000E+000	7.13150E-001	8.73143E-005	9	...........
	608	12.18	7.31375E-001	5.03603E-006	0.00000E+000	7.32150E-001	7.02170E-005	9	...........
	627	12.56	7.50357E-001	4.10455E-006	0.00000E+000	7.51150E-001	7.52211E-005	9	...........
	646	12.94	7.69247E-001	3.81279E-006	0.00000E+000	7.70150E-001	7.61385E-005	9	...........
	665	13.32	7.88204E-001	4.42666E-006	0.00000E+000	7.89150E-001	9.13176E-005	9	...........
	684	13.7	7.91160E-001	3.97994E-006	0.00000E+000	7.92150E-001	7.73895E-005	9	...........
	703	14.08	7.72203E-001	3.55757E-006	0.00000E+000	7.73150E-001	7.95580E-005	9	...........
	722	14.46	7.53193E-001	3.43380E-006	0.00000E+000	7.54150E-001	7.50543E-005	9	...........
	741	14.84	7.34388E-001	3.70920E-006	0.00000E+000	7.35150E-001	7.48875E-005	9	...........
	760	15.22	7.15274E-001	3.56174E-006	0.00000E+000	7.16150E-001	7.98916E-005	9	...........
	779	15.6	6.96265E-001	3.85700E-006	0.00000E+000	6.97150E-001	7.83069E-005	9	...........
[...]
	13746	274.94	-1.30168E-001	-1.01224E-006	0.00000E+000	-1.30000E-001	6.69643E-005	9	...........
	13753	275.08	-1.23151E-001	-1.15937E-006	0.00000E+000	-1.23000E-001	6.19602E-005	9	...........
	13760	275.22	-1.16075E-001	-6.57098E-007	0.00000E+000	-1.16000E-001	5.02840E-005	9	...........
	13767	275.36	-1.09204E-001	-8.69116E-007	0.00000E+000	-1.09000E-001	6.09594E-005	9	...........
	13774	275.5	-1.02195E-001	-1.02225E-006	0.00000E+000	-1.02000E-001	7.13846E-005	9	...........
	13781	275.64	-9.50908E-002	-5.54342E-007	0.00000E+000	-9.50000E-002	5.18686E-005	9	...........
	13788	275.78	-8.80813E-002	-7.28994E-007	0.00000E+000	-8.80000E-002	6.19602E-005	9	...........
	13795	275.92	-8.11664E-002	-9.19660E-007	0.00000E+000	-8.10000E-002	5.92080E-005	9	...........
	13802	276.06	-7.42663E-002	-5.96378E-007	0.00000E+000	-7.40000E-002	7.07174E-005	9	...........
	13809	276.2	-6.71919E-002	-2.92180E-008	0.00000E+000	-6.70000E-002	6.32947E-005	9	...........
	13816	276.34	-6.02079E-002	-4.71436E-007	0.00000E+000	-6.00000E-002	7.02170E-005	9	...........
	13823	276.48	-5.32165E-002	-4.88618E-007	0.00000E+000	-5.30000E-002	6.51295E-005	9	...........
	13830	276.62	-4.62124E-002	-3.22473E-007	0.00000E+000	-4.60000E-002	7.60551E-005	9	...........
	13837	276.76	-3.92421E-002	2.53195E-007	0.00000E+000	-3.90000E-002	6.82153E-005	9	...........
	13844	276.9	-3.20939E-002	-4.89285E-007	0.00000E+000	-3.20000E-002	6.54631E-005	9	...........
	13851	277.04	-2.50888E-002	1.10570E-007	0.00000E+000	-2.50000E-002	5.28695E-005	9	...........
	13858	277.18	-1.82596E-002	-2.34397E-007	0.00000E+000	-1.80000E-002	7.32194E-005	9	...........
	13865	277.32	-1.12326E-002	-1.47488E-007	0.00000E+000	-1.10000E-002	6.74647E-005	9	...........
	13872	277.46	-4.22858E-003	-6.94196E-008	0.00000E+000	-3.99999E-003	6.22938E-005	9	...........
	13879	277.6	2.60359E-003	-2.73830E-008	0.00000E+000	3.00001E-003	7.10510E-005	9	...........
	13886	277.74	9.67871E-003	-6.74179E-008	0.00000E+000	1.00000E-002	7.03838E-005	9	...........
	13893	277.88	1.66084E-002	6.46971E-008	0.00000E+000	1.70000E-002	7.22186E-005	9	...........
	13900	278.02	2.38834E-002	3.40104E-007	0.00000E+000	2.40000E-002	6.32113E-005	9	...........
	13907	278.16	3.06551E-002	4.92069E-007	0.00000E+000	3.10000E-002	6.47959E-005	9	...........
	13914	278.3	3.76614E-002	2.21667E-007	0.00000E+000	3.80000E-002	6.27942E-005	9	...........
	13921	278.44	4.48875E-002	6.98749E-007	0.00000E+000	4.50000E-002	5.13682E-005	9	...........
	13928	278.58	5.16512E-002	2.90394E-007	0.00000E+000	5.20000E-002	6.05424E-005	9	...........
	13935	278.72	5.86591E-002	3.93317E-007	0.00000E+000	5.90000E-002	6.55465E-005	9	...........
	13942	278.86	6.56680E-002	5.30269E-007	0.00000E+000	6.60000E-002	6.49627E-005	9	...........
	13949	279	7.26123E-002	1.11761E-006	0.00000E+000	7.30000E-002	6.48793E-005	9	...........
	13956	279.14	7.97387E-002	6.06335E-007	0.00000E+000	8.00000E-002	5.82072E-005	9	...........
	13963	279.28	8.66338E-002	5.73807E-007	0.00000E+000	8.70000E-002	6.42121E-005	9	...........
	13970	279.42	9.35429E-002	7.31611E-007	0.00000E+000	9.40000E-002	6.19602E-005	9	...........
	13977	279.56	1.00795E-001	7.74482E-007	0.00000E+000	1.01000E-001	6.55465E-005	9	...........
	13984	279.7	1.07590E-001	7.28942E-007	0.00000E+000	1.08000E-001	6.12096E-005	9	...........
	13991	279.84	1.14583E-001	1.37734E-006	0.00000E+000	1.15000E-001	7.60551E-005	9	...........
	13998	279.98	1.21636E-001	9.29784E-007	0.00000E+000	1.22000E-001	6.15432E-005	9	...........
	14000	280.02	1.23705E-001	1.21837E-006	0.00000E+000	1.24000E-001	5.05342E-005	9	...........

File: CVTESTKRISTALL4BOX5_2.DTA
EXPLAIN
TAG	CV
TITLE	LABEL	CV	Test &Identifier
DATE	LABEL	11/29/2019	Date
TIME	LABEL	11:03:20	Time
NOTES	NOTES	1	&Notes...

PSTAT	PSTAT	REF600-16093	Potentiostat
VINIT	POTEN	0.00000E+000	T	Initial &E (V)
VLIMIT1	POTEN	8.00000E-001	F	Scan Limit &1 (V)
VLIMIT2	POTEN	-5.00000E-001	F	Scan Limit &2 (V)
VFINAL	POTEN	0.00000E+000	T	Final &E (V)
SCANRATE	QUANT	4.99999E+001	&Scan Rate (mV/s)
STEPSIZE	QUANT	1.00000E+000	St&ep Size (mV)
CYCLES	IQUANT	5	C&ycles (#)
IMODE	SELECTOR	1	I/E Range &Mode
IRANGE	QUANT	1.50000E+001	&Max Current (mA)
AREA	QUANT	1.00000E+000	Electrode &Area (cm^2)
ELECTRODETYPE	SELECTOR	0	Electrode Type
STRIPPING	TOGGLE	F	Used for Stripping
POLARITY	TOGGLE	F	Signal Polarity
CONDIT	TWOPARAM	F	1.50000E+001	0.00000E+000	Conditionin&g	Time(s)	E(V)
DELAY	TWOPARAM	T	5.00000E+000	0.00000E+000	Init. De&lay	Time(s)	Stab.(mV/s)
EQDELAY	QUANT	3.00000E+000	Equil. &Time (s)
IRCOMP	SELECTOR	0	IRCom&p
PFCOR	QUANT	0.00000E+000	PF Corr. (ohm)
SAMPLINGMODE	SELECTOR	2	Sampling &Mode
OCVCURVE	TABLE	20
	Pt	T	Vf	Vm	Ach	Over
	#	s	V vs. Ref.	V	V	bits
	0	0.25	1.04873E-001	1.04873E-001	8.11002E-005	...........
	1	0.5	1.04914E-001	1.07029E-001	6.51421E-005	...........
	2	0.75	1.05084E-001	1.04722E-001	8.55168E-005	...........
	3	1	1.05362E-001	1.06387E-001	8.27669E-005	...........
	4	1.25	1.05591E-001	1.04959E-001	8.07252E-005	...........
	5	1.5	1.05729E-001	1.08725E-001	7.61420E-005	...........
	6	1.75	1.05928E-001	1.05108E-001	7.98086E-005	...........
	7	2	1.06237E-001	1.07641E-001	7.52670E-005	...........
	8	2.25	1.06440E-001	1.02788E-001	7.81419E-005	...........
	9	2.5	1.06286E-001	1.05778E-001	7.80169E-005	...........
	10	2.75	1.05883E-001	1.09306E-001	7.79753E-005	...........
	11	3	1.05766E-001	1.06314E-001	8.20585E-005	...........
	12	3.25	1.06162E-001	1.05957E-001	8.13502E-005	...........
	13	3.5	1.06582E-001	1.05025E-001	7.77253E-005	...........
	14	3.75	1.06604E-001	1.08503E-001	7.81419E-005	...........
	15	4	1.06410E-001	1.03588E-001	8.08086E-005	...........
	16	4.25	1.06244E-001	1.07187E-001	7.40587E-005	...........
	17	4.5	1.06098E-001	1.05701E-001	8.98501E-005	...........
	18	4.75	1.06015E-001	1.07089E-001	8.33919E-005	...........
	19	5	1.06075E-001	1.05680E-001	8.54335E-005	...........
EOC	QUANT	0.1060751	Open Circuit (V)
PSTATMODEL	IQUANT	4	Pstat Model
PSTATSECTION	LABEL	REF600-16093	Pstat Section
PSTATSERIALNO	LABEL	16093	Pstat Serial Number
CTRLMODE	IQUANT	1	Control Mode
IESTAB	IQUANT	2	I/E Stability
CASPEED	IQUANT	2	Control Amp Speed
CONVENTION	IQUANT	1	Current Convention
ICHRANGE	IQUANT	2	Ich Range
ICHRANGEMODE	TOGGLE	F	Ich Auto Range
ICHOFFSETENABLE	TOGGLE	F	Ich Offset Enable
ICHOFFSET	QUANT	0	Ich Offset (V)
ICHFILTER	IQUANT	2	Ich Filter
VCHRANGE	IQUANT	2	Vch Range
VCHRANGEMODE	TOGGLE	F	Vch Auto Range
VCHOFFSETENABLE	TOGGLE	F	Vch Offset Enable
VCHOFFSET	QUANT	0	Vch Offset (V)
VCHFILTER	IQUANT	2	Vch Filter
ACHRANGE	IQUANT	2	Ach Range
ACHOFFSETENABLE	TOGGLE	F	Ach Offset Enable
ACHOFFSET	QUANT	0	Ach Offset (V)
ACHFILTER	IQUANT	1	Ach Filter
IERANGELOWERLIMIT	IQUANT	1	I/E Range Lower Limit
IERANGEMODE	TOGGLE	F	I/E AutoRange
IERANGE	IQUANT	10	I/E Range
POSFEEDENABLE	TOGGLE	F	Positive Feedback IR Comp
POSFEEDRESISTANCE	QUANT	0	Positive Feedback Resistance (ohm)
ACHSELECT	IQUANT	0	Ach Select
CABLEID	IQUANT	14	Cable ID
DCCALDATE	LABEL	11/5/2019	DC Calibration Date
ACCALDATE	LABEL		AC Calibration Date
THERMOSELECT	IQUANT	1	Thermo Select
FRAMEWORKVERSION	QUANT	6.12	Framework Version
INSTRUMENTVERSION	LABEL	3.11	Instrument Version
CURVE1	TABLE
	Pt	T	Vf	Im	Vu	Sig	Ach	IERange	Over
	#	s	V vs. Ref.	A	V	V	V	#	bits
	0	0.02	1.05752E-001	-1.21849E-006	0.00000E+000	1.06100E-001	7.53879E-005	10	...........
	19	0.4	1.24646E-001	-2.13428E-006	0.00000E+000	1.25100E-001	7.98082E-005	10	...........
	38	0.78	1.43419E-001	-2.57634E-006	0.00000E+000	1.44050E-001	8.05588E-005	10	...........
	57	1.16	1.62557E-001	-2.76817E-006	0.00000E+000	1.63050E-001	8.18098E-005	10	...........
	76	1.54	1.81579E-001	-2.55298E-006	0.00000E+000	1.82050E-001	7.26356E-005	10	...........
	95	1.92	2.00737E-001	2.17947E-006	0.00000E+000	2.01050E-001	6.73813E-005	10	...........
	114	2.3	2.19574E-001	7.81588E-007	0.00000E+000	2.20050E-001	8.26438E-005	10	...........
	133	2.68	2.38538E-001	-4.17789E-007	0.00000E+000	2.39050E-001	7.68891E-005	10	...........
	152	3.06	2.57476E-001	-8.16470E-007	0.00000E+000	2.58050E-001	7.54713E-005	10	...........
	171	3.44	2.76476E-001	2.34445E-007	0.00000E+000	2.77050E-001	8.41450E-005	10	...........
	190	3.82	2.95352E-001	4.76162E-008	0.00000E+000	2.96050E-001	8.30608E-005	10	...........
	209	4.2	3.14581E-001	3.72415E-006	0.00000E+000	3.15050E-001	7.15514E-005	10	...........
	228	4.58	3.33425E-001	-2.62654E-007	0.00000E+000	3.34050E-001	9.25686E-005	10	...........
	247	4.96	3.52406E-001	9.90103E-007	0.00000E+000	3.53050E-001	8.79815E-005	10	...........
	266	5.34	3.71463E-001	1.32873E-006	0.00000E+000	3.72050E-001	8.47289E-005	10	...........
	285	5.72	3.90367E-001	1.13523E-006	0.00000E+000	3.91050E-001	8.03920E-005	10	...........
	304	6.1	4.09363E-001	1.27202E-006	0.00000E+000	4.10050E-001	8.83985E-005	10	...........
	323	6.48	4.28490E-001	6.26303E-006	0.00000E+000	4.29050E-001	6.42121E-005	10	...........
	342	6.86	4.47324E-001	2.76999E-006	0.00000E+000	4.48050E-001	8.28106E-005	10	...........
	361	7.24	4.66305E-001	4.66163E-006	0.00000E+000	4.67050E-001	7.75563E-005	10	...........
	380	7.62	4.85315E-001	3.27876E-006	0.00000E+000	4.86050E-001	8.72309E-005	10	...........
	399	8	5.04307E-001	3.38886E-006	0.00000E+000	5.05050E-001	6.97166E-005	10	...........
	418	8.38	5.23225E-001	3.27543E-006	0.00000E+000	5.24050E-001	7.37198E-005	10	...........
	437	8.76	5.42228E-001	5.42063E-006	0.00000E+000	5.43050E-001	7.56381E-005	10	...........
	456	9.14	5.61211E-001	3.65242E-006	0.00000E+000	5.62050E-001	8.10592E-005	10	...........
	475	9.52	5.80173E-001	4.43644E-006	0.00000E+000	5.81050E-001	8.16430E-005	10	...........
	494	9.9	5.99355E-001	8.71516E-006	0.00000E+000	6.00050E-001	6.36283E-005	10	...........
	513	10.28	6.18184E-001	6.73010E-006	0.00000E+000	6.19050E-001	8.50625E-005	10	...........
	532	10.66	6.37192E-001	7.28892E-006	0.00000E+000	6.38050E-001	8.32276E-005	10	...........
	551	11.04	6.56336E-001	8.14300E-006	0.00000E+000	6.57050E-001	7.43037E-005	10	...........
	570	11.42	6.75122E-001	8.35318E-006	0.00000E+000	6.76050E-001	7.90576E-005	10	...........
	589	11.8	6.94113E-001	9.64931E-006	0.00000E+000	6.95050E-001	8.60633E-005	10	...........
	608	12.18	7.13028E-001	9.00541E-006	0.00000E+000	7.14050E-001	7.83903E-005	10	...........
	627	12.56	7.32064E-001	9.90119E-006	0.00000E+000	7.33050E-001	7.58049E-005	10	...........
	646	12.94	7.51058E-001	9.76775E-006	0.00000E+000	7.52050E-001	7.83069E-005	10	...........
	665	13.32	7.70069E-001	1.12457E-005	0.00000E+000	7.71050E-001	7.87239E-005	10	...........
	684	13.7	7.89158E-001	1.12324E-005	0.00000E+000	7.90050E-001	8.15596E-005	10	...........
	703	14.08	7.90059E-001	1.09438E-005	0.00000E+000	7.91050E-001	7.51377E-005	10	...........
	722	14.46	7.71072E-001	1.03549E-005	0.00000E+000	7.72050E-001	7.86405E-005	10	...........
	741	14.84	7.52132E-001	1.01831E-005	0.00000E+000	7.53050E-001	7.55547E-005	10	...........
	760	15.22	7.33185E-001	8.80357E-006	0.00000E+000	7.34050E-001	7.73895E-005	10	...........
[...]
	12779	255.6	-1.15253E-001	-4.39792E-006	0.00000E+000	-1.15000E-001	7.11344E-005	10	...........
	12785	255.72	-1.09097E-001	-7.08042E-007	0.00000E+000	-1.09000E-001	6.11262E-005	10	...........
	12791	255.84	-1.03200E-001	-4.64147E-006	0.00000E+000	-1.03000E-001	7.04672E-005	10	...........
	12797	255.96	-9.72354E-002	-3.52049E-006	0.00000E+000	-9.70000E-002	7.48041E-005	10	...........
	12803	256.08	-9.12975E-002	-4.56140E-006	0.00000E+000	-9.10000E-002	6.98000E-005	10	...........
	12809	256.2	-8.53409E-002	-3.30697E-006	0.00000E+000	-8.50000E-002	8.48957E-005	10	...........
	12815	256.32	-7.92090E-002	-3.78239E-006	0.00000E+000	-7.90000E-002	7.74729E-005	10	...........
	12821	256.44	-7.32232E-002	-3.90249E-006	0.00000E+000	-7.30000E-002	7.69725E-005	10	...........
	12827	256.56	-6.73010E-002	-3.98256E-006	0.00000E+000	-6.70000E-002	7.33862E-005	10	...........
	12833	256.68	-6.13927E-002	-3.62225E-006	0.00000E+000	-6.10000E-002	7.64721E-005	10	...........
	12839	256.8	-5.52295E-002	-2.49293E-006	0.00000E+000	-5.50000E-002	7.41369E-005	10	...........
	12845	256.92	-4.92222E-002	-3.86579E-006	0.00000E+000	-4.90000E-002	7.87239E-005	10	...........
	12851	257.04	-4.32919E-002	-3.15184E-006	0.00000E+000	-4.30000E-002	7.44705E-005	10	...........
	12857	257.16	-3.74057E-002	-2.37282E-006	0.00000E+000	-3.70000E-002	7.48041E-005	10	...........
	12863	257.28	-3.11396E-002	5.76249E-008	0.00000E+000	-3.10000E-002	6.25440E-005	10	...........
	12869	257.4	-2.52298E-002	-3.35535E-006	0.00000E+000	-2.50000E-002	7.51377E-005	10	...........
	12875	257.52	-1.93077E-002	-8.58173E-007	0.00000E+000	-1.90000E-002	7.35530E-005	10	...........
	12881	257.64	-1.33275E-002	-3.31865E-006	0.00000E+000	-1.30000E-002	7.63887E-005	10	...........
	12887	257.76	-7.08982E-003	1.20696E-006	0.00000E+000	-6.99998E-003	6.18768E-005	10	...........
	12893	257.88	-1.25572E-003	-3.52883E-006	0.00000E+000	-9.99987E-004	7.91409E-005	10	...........
	12899	258	4.60608E-003	-3.15517E-006	0.00000E+000	5.00001E-003	8.43953E-005	10	...........
	12905	258.12	1.05951E-002	-3.04508E-006	0.00000E+000	1.10000E-002	7.74729E-005	10	...........
	12911	258.24	1.68666E-002	1.09019E-006	0.00000E+000	1.70000E-002	5.07844E-005	10	...........
	12917	258.36	2.27708E-002	-3.17019E-006	0.00000E+000	2.30000E-002	7.55547E-005	10	...........
	12923	258.48	2.86027E-002	-1.12007E-006	0.00000E+000	2.90000E-002	8.09758E-005	10	...........
	12929	258.6	3.45855E-002	-2.72980E-006	0.00000E+000	3.50000E-002	7.98916E-005	10	...........
	12935	258.72	4.06798E-002	-2.11093E-006	0.00000E+000	4.10000E-002	7.23854E-005	10	...........
	12941	258.84	4.68582E-002	4.06262E-007	0.00000E+000	4.70000E-002	5.93748E-005	10	...........
	12947	258.96	5.26032E-002	-3.50214E-006	0.00000E+000	5.30000E-002	7.34697E-005	10	...........
	12953	259.08	5.85606E-002	-3.10847E-006	0.00000E+000	5.90000E-002	8.04754E-005	10	...........
	12959	259.2	6.45786E-002	-1.90408E-006	0.00000E+000	6.50000E-002	7.46373E-005	10	...........
	12965	259.32	7.07615E-002	-3.01005E-006	0.00000E+000	7.10000E-002	8.07256E-005	10	...........
	12971	259.44	7.66001E-002	-1.51041E-006	0.00000E+000	7.70000E-002	7.73061E-005	10	...........
	12977	259.56	8.25717E-002	-2.96000E-006	0.00000E+000	8.30000E-002	7.69725E-005	10	...........
	12983	259.68	8.86812E-002	-3.67745E-007	0.00000E+000	8.90000E-002	6.99668E-005	10	...........
	12989	259.8	9.46096E-002	-3.00171E-006	0.00000E+000	9.50000E-002	7.63887E-005	10	...........
	12995	259.92	1.00587E-001	-8.36487E-007	0.00000E+000	1.01000E-001	7.58883E-005	10	...........
	13000	260.02	1.05587E-001	-1.20681E-006	0.00000E+000	1.06000E-001	7.06340E-005	10	...........