Folder: Julia/20191129/matning1 (part 3)

File: CVTESTKRISTALL5BOX5.DTA
EXPLAIN
TAG	CV
TITLE	LABEL	CV	Test &Identifier
DATE	LABEL	11/29/2019	Date
TIME	LABEL	13:24:37	Time
NOTES	NOTES	1	&Notes...

PSTAT	PSTAT	REF600-16093	Potentiostat
VINIT	POTEN	0.00000E+000	T	Initial &E (V)
VLIMIT1	POTEN	8.00000E-001	F	Scan Limit &1 (V)
VLIMIT2	POTEN	-5.00000E-001	F	Scan Limit &2 (V)
VFINAL	POTEN	0.00000E+000	T	Final &E (V)
SCANRATE	QUANT	4.99999E+001	&Scan Rate (mV/s)
STEPSIZE	QUANT	1.00000E+000	St&ep Size (mV)
CYCLES	IQUANT	5	C&ycles (#)
IMODE	SELECTOR	1	I/E Range &Mode
IRANGE	QUANT	1.50000E+001	&Max Current (mA)
AREA	QUANT	1.00000E+000	Electrode &Area (cm^2)
ELECTRODETYPE	SELECTOR	0	Electrode Type
STRIPPING	TOGGLE	F	Used for Stripping
POLARITY	TOGGLE	F	Signal Polarity
CONDIT	TWOPARAM	F	1.50000E+001	0.00000E+000	Conditionin&g	Time(s)	E(V)
DELAY	TWOPARAM	T	5.00000E+000	0.00000E+000	Init. De&lay	Time(s)	Stab.(mV/s)
EQDELAY	QUANT	3.00000E+000	Equil. &Time (s)
IRCOMP	SELECTOR	0	IRCom&p
PFCOR	QUANT	0.00000E+000	PF Corr. (ohm)
SAMPLINGMODE	SELECTOR	2	Sampling &Mode
OCVCURVE	TABLE	20
	Pt	T	Vf	Vm	Ach	Over
	#	s	V vs. Ref.	V	V	bits
	0	0.25	1.85621E-001	1.85621E-001	6.72671E-005	...........
	1	0.5	1.85622E-001	1.85703E-001	6.01005E-005	...........
	2	0.75	1.85630E-001	1.85667E-001	6.08089E-005	...........
	3	1	1.85645E-001	1.85717E-001	6.42255E-005	...........
	4	1.25	1.85664E-001	1.85674E-001	6.37672E-005	...........
	5	1.5	1.85681E-001	1.85740E-001	6.36422E-005	...........
	6	1.75	1.85696E-001	1.85859E-001	6.09339E-005	...........
	7	2	1.85713E-001	1.85450E-001	6.68088E-005	...........
	8	2.25	1.85722E-001	1.85960E-001	6.51005E-005	...........
	9	2.5	1.85728E-001	1.86004E-001	6.54755E-005	...........
	10	2.75	1.85751E-001	1.85342E-001	6.31838E-005	...........
	11	3	1.85769E-001	1.85708E-001	5.85172E-005	...........
	12	3.25	1.85743E-001	1.85809E-001	6.31005E-005	...........
	13	3.5	1.85710E-001	1.86079E-001	5.76006E-005	...........
	14	3.75	1.85726E-001	1.85506E-001	5.96006E-005	...........
	15	4	1.85755E-001	1.84993E-001	6.03922E-005	...........
	16	4.25	1.85701E-001	1.85578E-001	6.37255E-005	...........
	17	4.5	1.85572E-001	1.85664E-001	6.18505E-005	...........
	18	4.75	1.85481E-001	1.85739E-001	5.86422E-005	...........
	19	5	1.85497E-001	1.85607E-001	5.55173E-005	...........
EOC	QUANT	0.1854966	Open Circuit (V)
PSTATMODEL	IQUANT	4	Pstat Model
PSTATSECTION	LABEL	REF600-16093	Pstat Section
PSTATSERIALNO	LABEL	16093	Pstat Serial Number
CTRLMODE	IQUANT	1	Control Mode
IESTAB	IQUANT	2	I/E Stability
CASPEED	IQUANT	2	Control Amp Speed
CONVENTION	IQUANT	1	Current Convention
ICHRANGE	IQUANT	2	Ich Range
ICHRANGEMODE	TOGGLE	F	Ich Auto Range
ICHOFFSETENABLE	TOGGLE	F	Ich Offset Enable
ICHOFFSET	QUANT	0	Ich Offset (V)
ICHFILTER	IQUANT	2	Ich Filter
VCHRANGE	IQUANT	2	Vch Range
VCHRANGEMODE	TOGGLE	F	Vch Auto Range
VCHOFFSETENABLE	TOGGLE	F	Vch Offset Enable
VCHOFFSET	QUANT	0	Vch Offset (V)
VCHFILTER	IQUANT	2	Vch Filter
ACHRANGE	IQUANT	2	Ach Range
ACHOFFSETENABLE	TOGGLE	F	Ach Offset Enable
ACHOFFSET	QUANT	0	Ach Offset (V)
ACHFILTER	IQUANT	1	Ach Filter
IERANGELOWERLIMIT	IQUANT	1	I/E Range Lower Limit
IERANGEMODE	TOGGLE	F	I/E AutoRange
IERANGE	IQUANT	10	I/E Range
POSFEEDENABLE	TOGGLE	F	Positive Feedback IR Comp
POSFEEDRESISTANCE	QUANT	0	Positive Feedback Resistance (ohm)
ACHSELECT	IQUANT	0	Ach Select
CABLEID	IQUANT	14	Cable ID
DCCALDATE	LABEL	11/5/2019	DC Calibration Date
ACCALDATE	LABEL		AC Calibration Date
THERMOSELECT	IQUANT	1	Thermo Select
FRAMEWORKVERSION	QUANT	6.12	Framework Version
INSTRUMENTVERSION	LABEL	3.11	Instrument Version
CURVE1	TABLE
	Pt	T	Vf	Im	Vu	Sig	Ach	IERange	Over
	#	s	V vs. Ref.	A	V	V	V	#	bits
	0	0.02	1.84999E-001	-3.06343E-006	0.00000E+000	1.85500E-001	6.88826E-005	10	...........
	18	0.38	2.02977E-001	-1.89074E-006	0.00000E+000	2.03500E-001	6.52129E-005	10	...........
	36	0.74	2.21106E-001	-2.02919E-006	0.00000E+000	2.21500E-001	6.44623E-005	10	...........
	54	1.1	2.38925E-001	-1.14676E-006	0.00000E+000	2.39500E-001	6.73813E-005	10	...........
	72	1.46	2.56909E-001	-1.53876E-006	0.00000E+000	2.57500E-001	6.25440E-005	10	...........
	90	1.82	2.74914E-001	-1.29022E-006	0.00000E+000	2.75500E-001	6.63805E-005	10	...........
	108	2.18	2.92896E-001	-6.73011E-007	0.00000E+000	2.93500E-001	6.10428E-005	10	...........
	126	2.54	3.10865E-001	2.12760E-007	0.00000E+000	3.11500E-001	7.02170E-005	10	...........
	144	2.9	3.28858E-001	7.74916E-007	0.00000E+000	3.29500E-001	6.22938E-005	10	...........
	162	3.26	3.46757E-001	1.32706E-006	0.00000E+000	3.47500E-001	5.97084E-005	10	...........
	180	3.62	3.64861E-001	3.34716E-006	0.00000E+000	3.65500E-001	5.83740E-005	10	...........
	198	3.98	3.82828E-001	4.40141E-006	0.00000E+000	3.83500E-001	6.14598E-005	10	...........
	216	4.34	4.00798E-001	5.52572E-006	0.00000E+000	4.01500E-001	5.97084E-005	10	...........
	234	4.7	4.18734E-001	8.09629E-006	0.00000E+000	4.19500E-001	6.79651E-005	10	...........
	252	5.06	4.36762E-001	1.07686E-005	0.00000E+000	4.37500E-001	5.83740E-005	10	...........
	270	5.42	4.54777E-001	1.38713E-005	0.00000E+000	4.55500E-001	6.32947E-005	10	...........
	288	5.78	4.72741E-001	1.69990E-005	0.00000E+000	4.73500E-001	6.41287E-005	10	...........
	306	6.14	4.90707E-001	2.04037E-005	0.00000E+000	4.91500E-001	6.42121E-005	10	...........
	324	6.5	5.08709E-001	2.37266E-005	0.00000E+000	5.09500E-001	5.86242E-005	10	...........
	342	6.86	5.26769E-001	2.70094E-005	0.00000E+000	5.27500E-001	6.80485E-005	10	...........
	360	7.22	5.44650E-001	3.02489E-005	0.00000E+000	5.45500E-001	6.33781E-005	10	...........
	378	7.58	5.62682E-001	3.34067E-005	0.00000E+000	5.63500E-001	6.71311E-005	10	...........
	396	7.94	5.80668E-001	3.66812E-005	0.00000E+000	5.81500E-001	6.66307E-005	10	...........
	414	8.3	5.98715E-001	3.89715E-005	0.00000E+000	5.99500E-001	7.06340E-005	10	...........
	432	8.66	6.16597E-001	4.21192E-005	0.00000E+000	6.17500E-001	7.00502E-005	10	...........
	450	9.02	6.34596E-001	4.49317E-005	0.00000E+000	6.35500E-001	7.05506E-005	10	...........
	468	9.38	6.52559E-001	4.77008E-005	0.00000E+000	6.53500E-001	7.13012E-005	10	...........
	486	9.74	6.70688E-001	5.06016E-005	0.00000E+000	6.71500E-001	6.87158E-005	10	...........
	504	10.1	6.88572E-001	5.34374E-005	0.00000E+000	6.89500E-001	7.06340E-005	10	...........
	522	10.46	7.06550E-001	5.70306E-005	0.00000E+000	7.07500E-001	6.85490E-005	10	...........
	540	10.82	7.24517E-001	5.90256E-005	0.00000E+000	7.25500E-001	7.08842E-005	10	...........
	558	11.18	7.42681E-001	6.21116E-005	0.00000E+000	7.43500E-001	6.92162E-005	10	...........
	576	11.54	7.60491E-001	6.48657E-005	0.00000E+000	7.61500E-001	6.98834E-005	10	...........
	594	11.9	7.78498E-001	6.81886E-005	0.00000E+000	7.79500E-001	6.17100E-005	10	...........
	612	12.26	7.96471E-001	7.14398E-005	0.00000E+000	7.97500E-001	6.92162E-005	10	...........
	630	12.62	7.82722E-001	4.69034E-005	0.00000E+000	7.83500E-001	6.12930E-005	10	...........
	648	12.98	7.64507E-001	3.15083E-005	0.00000E+000	7.65500E-001	6.32113E-005	10	...........
	666	13.34	7.46516E-001	2.22753E-005	0.00000E+000	7.47500E-001	6.33781E-005	10	...........
	684	13.7	7.28545E-001	1.54160E-005	0.00000E+000	7.29500E-001	7.34697E-005	10	...........
	702	14.06	7.10737E-001	1.12640E-005	0.00000E+000	7.11500E-001	6.51295E-005	10	...........
	720	14.42	6.92553E-001	7.63923E-006	0.00000E+000	6.93500E-001	7.38032E-005	10	...........
[...]
	12741	254.84	-7.22797E-002	-1.15325E-005	0.00000E+000	-7.20000E-002	7.58883E-005	10	...........
	12748	254.98	-6.52958E-002	-1.09403E-005	0.00000E+000	-6.50000E-002	6.72145E-005	10	...........
	12755	255.12	-5.82867E-002	-1.07418E-005	0.00000E+000	-5.80000E-002	7.18016E-005	10	...........
	12762	255.26	-5.12853E-002	-1.02497E-005	0.00000E+000	-5.10000E-002	6.71311E-005	10	...........
	12769	255.4	-4.42816E-002	-9.83265E-006	0.00000E+000	-4.40000E-002	7.33028E-005	10	...........
	12776	255.54	-3.73641E-002	-9.84933E-006	0.00000E+000	-3.70000E-002	6.76315E-005	10	...........
	12783	255.68	-3.01146E-002	-9.62581E-006	0.00000E+000	-3.00000E-002	6.37117E-005	10	...........
	12790	255.82	-2.32996E-002	-8.40141E-006	0.00000E+000	-2.30000E-002	6.90494E-005	10	...........
	12797	255.96	-1.63466E-002	-8.48148E-006	0.00000E+000	-1.60000E-002	6.31278E-005	10	...........
	12804	256.1	-9.23066E-003	-8.68499E-006	0.00000E+000	-8.99999E-003	6.55465E-005	10	...........
	12811	256.24	-2.30316E-003	-7.93600E-006	0.00000E+000	-1.99999E-003	6.30444E-005	10	...........
	12818	256.38	4.57605E-003	-8.05444E-006	0.00000E+000	5.00001E-003	7.12178E-005	10	...........
	12825	256.52	1.15959E-002	-7.90431E-006	0.00000E+000	1.20000E-002	7.06340E-005	10	...........
	12832	256.66	1.86575E-002	-7.67077E-006	0.00000E+000	1.90000E-002	6.53797E-005	10	...........
	12839	256.8	2.56351E-002	-7.30545E-006	0.00000E+000	2.60000E-002	6.11262E-005	10	...........
	12846	256.94	3.25978E-002	-7.00519E-006	0.00000E+000	3.30000E-002	7.12178E-005	10	...........
	12853	257.08	3.95164E-002	-7.07358E-006	0.00000E+000	4.00000E-002	7.92243E-005	10	...........
	12860	257.22	4.67576E-002	-6.46972E-006	0.00000E+000	4.70000E-002	7.25522E-005	10	...........
	12867	257.36	5.35893E-002	-6.18114E-006	0.00000E+000	5.40000E-002	6.84655E-005	10	...........
	12874	257.5	6.05848E-002	-5.71907E-006	0.00000E+000	6.10000E-002	7.62219E-005	10	...........
	12881	257.64	6.75948E-002	-6.02600E-006	0.00000E+000	6.80000E-002	7.48041E-005	10	...........
	12888	257.78	7.45928E-002	-5.39212E-006	0.00000E+000	7.50000E-002	7.17182E-005	10	...........
	12895	257.92	8.15359E-002	-5.79414E-006	0.00000E+000	8.20000E-002	6.51295E-005	10	...........
	12902	258.06	8.85699E-002	-4.74322E-006	0.00000E+000	8.90000E-002	7.18016E-005	10	...........
	12909	258.2	9.55577E-002	-4.27615E-006	0.00000E+000	9.60000E-002	6.63805E-005	10	...........
	12916	258.34	1.02715E-001	-4.50134E-006	0.00000E+000	1.03000E-001	6.73813E-005	10	...........
	12923	258.48	1.09538E-001	-3.84911E-006	0.00000E+000	1.10000E-001	6.47959E-005	10	...........
	12930	258.62	1.16542E-001	-3.96087E-006	0.00000E+000	1.17000E-001	7.34697E-005	10	...........
	12937	258.76	1.23575E-001	-3.50881E-006	0.00000E+000	1.24000E-001	6.82987E-005	10	...........
	12944	258.9	1.30512E-001	-3.43708E-006	0.00000E+000	1.31000E-001	6.52963E-005	10	...........
	12951	259.04	1.37503E-001	-3.42541E-006	0.00000E+000	1.38000E-001	6.66307E-005	10	...........
	12958	259.18	1.44531E-001	-8.96189E-006	0.00000E+000	1.45000E-001	7.48875E-005	10	...........
	12965	259.32	1.51529E-001	-2.28275E-006	0.00000E+000	1.52000E-001	6.82987E-005	10	...........
	12972	259.46	1.58554E-001	-2.73314E-006	0.00000E+000	1.59000E-001	7.60551E-005	10	...........
	12979	259.6	1.65481E-001	-2.25272E-006	0.00000E+000	1.66000E-001	6.71311E-005	10	...........
	12986	259.74	1.72497E-001	-1.88073E-006	0.00000E+000	1.73000E-001	7.89741E-005	10	...........
	12993	259.88	1.79571E-001	-2.05421E-006	0.00000E+000	1.80000E-001	7.03004E-005	10	...........
	12998	259.98	1.84486E-001	-1.57213E-006	0.00000E+000	1.85000E-001	7.18016E-005	10	...........

File: CVTESTKRISTALL5BOX5_2.DTA
EXPLAIN
TAG	CV
TITLE	LABEL	CV	Test &Identifier
DATE	LABEL	11/29/2019	Date
TIME	LABEL	15:00:02	Time
NOTES	NOTES	1	&Notes...

PSTAT	PSTAT	REF600-16093	Potentiostat
VINIT	POTEN	0.00000E+000	T	Initial &E (V)
VLIMIT1	POTEN	1.50000E+000	F	Scan Limit &1 (V)
VLIMIT2	POTEN	2.00000E-001	F	Scan Limit &2 (V)
VFINAL	POTEN	0.00000E+000	T	Final &E (V)
SCANRATE	QUANT	4.99999E+001	&Scan Rate (mV/s)
STEPSIZE	QUANT	1.00000E+000	St&ep Size (mV)
CYCLES	IQUANT	5	C&ycles (#)
IMODE	SELECTOR	1	I/E Range &Mode
IRANGE	QUANT	1.50000E+001	&Max Current (mA)
AREA	QUANT	1.00000E+000	Electrode &Area (cm^2)
ELECTRODETYPE	SELECTOR	0	Electrode Type
STRIPPING	TOGGLE	F	Used for Stripping
POLARITY	TOGGLE	F	Signal Polarity
CONDIT	TWOPARAM	F	1.50000E+001	0.00000E+000	Conditionin&g	Time(s)	E(V)
DELAY	TWOPARAM	T	5.00000E+000	0.00000E+000	Init. De&lay	Time(s)	Stab.(mV/s)
EQDELAY	QUANT	3.00000E+000	Equil. &Time (s)
IRCOMP	SELECTOR	0	IRCom&p
PFCOR	QUANT	0.00000E+000	PF Corr. (ohm)
SAMPLINGMODE	SELECTOR	2	Sampling &Mode
OCVCURVE	TABLE	20
	Pt	T	Vf	Vm	Ach	Over
	#	s	V vs. Ref.	V	V	bits
	0	0.25	-2.80971E-001	-2.80971E-001	9.81416E-005	...........
	1	0.5	-2.81032E-001	-2.84148E-001	1.06892E-004	...........
	2	0.75	-2.81282E-001	-2.80713E-001	1.15225E-004	...........
	3	1	-2.81663E-001	-2.81855E-001	1.19766E-004	...........
	4	1.25	-2.81873E-001	-2.80379E-001	9.94749E-005	...........
	5	1.5	-2.81742E-001	-2.80763E-001	1.00392E-004	...........
	6	1.75	-2.81398E-001	-2.81132E-001	1.14183E-004	...........
	7	2	-2.81082E-001	-2.80985E-001	1.07100E-004	...........
	8	2.25	-2.80920E-001	-2.80242E-001	9.74750E-005	...........
	9	2.5	-2.80849E-001	-2.80908E-001	1.19058E-004	...........
	10	2.75	-2.80773E-001	-2.80335E-001	1.16725E-004	...........
	11	3	-2.80701E-001	-2.81424E-001	1.07891E-004	...........
	12	3.25	-2.80687E-001	-2.80259E-001	1.01225E-004	...........
	13	3.5	-2.80712E-001	-2.80320E-001	1.22266E-004	...........
	14	3.75	-2.80681E-001	-2.80268E-001	1.10725E-004	...........
	15	4	-2.80554E-001	-2.79806E-001	1.01683E-004	...........
	16	4.25	-2.80378E-001	-2.80321E-001	1.18850E-004	...........
	17	4.5	-2.80217E-001	-2.79672E-001	1.23516E-004	...........
	18	4.75	-2.80112E-001	-2.80824E-001	1.03433E-004	...........
	19	5	-2.80090E-001	-2.79828E-001	9.32667E-005	...........
EOC	QUANT	-0.2800901	Open Circuit (V)
PSTATMODEL	IQUANT	4	Pstat Model
PSTATSECTION	LABEL	REF600-16093	Pstat Section
PSTATSERIALNO	LABEL	16093	Pstat Serial Number
CTRLMODE	IQUANT	1	Control Mode
IESTAB	IQUANT	2	I/E Stability
CASPEED	IQUANT	2	Control Amp Speed
CONVENTION	IQUANT	1	Current Convention
ICHRANGE	IQUANT	2	Ich Range
ICHRANGEMODE	TOGGLE	F	Ich Auto Range
ICHOFFSETENABLE	TOGGLE	F	Ich Offset Enable
ICHOFFSET	QUANT	0	Ich Offset (V)
ICHFILTER	IQUANT	2	Ich Filter
VCHRANGE	IQUANT	2	Vch Range
VCHRANGEMODE	TOGGLE	F	Vch Auto Range
VCHOFFSETENABLE	TOGGLE	F	Vch Offset Enable
VCHOFFSET	QUANT	0	Vch Offset (V)
VCHFILTER	IQUANT	2	Vch Filter
ACHRANGE	IQUANT	2	Ach Range
ACHOFFSETENABLE	TOGGLE	F	Ach Offset Enable
ACHOFFSET	QUANT	0	Ach Offset (V)
ACHFILTER	IQUANT	1	Ach Filter
IERANGELOWERLIMIT	IQUANT	1	I/E Range Lower Limit
IERANGEMODE	TOGGLE	F	I/E AutoRange
IERANGE	IQUANT	10	I/E Range
POSFEEDENABLE	TOGGLE	F	Positive Feedback IR Comp
POSFEEDRESISTANCE	QUANT	0	Positive Feedback Resistance (ohm)
ACHSELECT	IQUANT	0	Ach Select
CABLEID	IQUANT	14	Cable ID
DCCALDATE	LABEL	11/5/2019	DC Calibration Date
ACCALDATE	LABEL		AC Calibration Date
THERMOSELECT	IQUANT	1	Thermo Select
FRAMEWORKVERSION	QUANT	6.12	Framework Version
INSTRUMENTVERSION	LABEL	3.11	Instrument Version
EXPERIMENTABORTED	TOGGLE	T	Experiment Aborted
CURVE	TABLE	1286
	Pt	T	Vf	Im	Vu	Sig	Ach	IERange	Over	Cycle
	#	s	V vs. Ref.	A	V	V	V	#	bits	#
	0	0.02	-2.80065E-001	-5.31221E-007	0.00000E+000	-2.80100E-001	1.52951E-004	10	...........	0
	13	0.28	-2.66979E-001	-2.51962E-006	0.00000E+000	-2.67100E-001	1.74969E-004	10	...........	0
	26	0.54	-2.54030E-001	-1.10505E-006	0.00000E+000	-2.54100E-001	1.63627E-004	10	...........	0
	39	0.8	-2.41094E-001	5.93091E-007	0.00000E+000	-2.41100E-001	1.67547E-004	10	...........	0
	52	1.06	-2.27871E-001	3.39720E-006	0.00000E+000	-2.28100E-001	1.47697E-004	10	...........	0
	65	1.32	-2.15139E-001	-8.76522E-007	0.00000E+000	-2.15100E-001	1.70049E-004	10	...........	0
	78	1.58	-2.01936E-001	3.26375E-006	0.00000E+000	-2.02100E-001	1.41942E-004	10	...........	0
	91	1.84	-1.89331E-001	-2.05755E-006	0.00000E+000	-1.89100E-001	1.77138E-004	10	...........	0
	104	2.1	-1.75869E-001	3.38886E-006	0.00000E+000	-1.76100E-001	1.48114E-004	10	...........	0
	117	2.36	-1.63214E-001	-1.89908E-006	0.00000E+000	-1.63100E-001	1.70632E-004	10	...........	0
	130	2.62	-1.50093E-001	-1.87406E-006	0.00000E+000	-1.50100E-001	1.73385E-004	10	...........	0
	143	2.88	-1.37172E-001	-5.39562E-007	0.00000E+000	-1.37100E-001	1.61375E-004	10	...........	0
	156	3.14	-1.24208E-001	-1.76563E-006	0.00000E+000	-1.24100E-001	1.75887E-004	10	...........	0
	169	3.4	-1.11207E-001	-1.05501E-006	0.00000E+000	-1.11100E-001	1.61792E-004	10	...........	0
	182	3.66	-9.82450E-002	-1.84570E-006	0.00000E+000	-9.80999E-002	1.74886E-004	10	...........	0
	195	3.92	-8.52944E-002	2.51127E-007	0.00000E+000	-8.51000E-002	1.65378E-004	10	...........	0
	208	4.18	-7.22659E-002	-1.33692E-006	0.00000E+000	-7.21000E-002	1.76054E-004	10	...........	0
	221	4.44	-5.92550E-002	-6.16295E-007	0.00000E+000	-5.91000E-002	1.60040E-004	10	...........	0
	234	4.7	-4.62555E-002	7.83257E-007	0.00000E+000	-4.61000E-002	1.64961E-004	10	...........	0
	247	4.96	-3.33454E-002	-1.40198E-006	0.00000E+000	-3.30999E-002	1.73552E-004	10	...........	0
	260	5.22	-2.02869E-002	-4.24462E-007	0.00000E+000	-2.01000E-002	1.74219E-004	10	...........	0
	273	5.48	-7.28040E-003	-1.37696E-006	0.00000E+000	-7.09999E-003	1.70966E-004	10	...........	0
	286	5.74	5.87778E-003	3.72081E-006	0.00000E+000	5.90003E-003	1.42526E-004	10	...........	0
	299	6	1.85743E-002	-6.91522E-008	0.00000E+000	1.89000E-002	1.72884E-004	10	...........	0
	312	6.26	3.15642E-002	-1.67722E-006	0.00000E+000	3.19000E-002	1.72968E-004	10	...........	0
	325	6.52	4.46165E-002	-1.34209E-007	0.00000E+000	4.49000E-002	1.64377E-004	10	...........	0
	338	6.78	5.76176E-002	7.39885E-007	0.00000E+000	5.79000E-002	1.67463E-004	10	...........	0
	351	7.04	7.07514E-002	-1.47037E-006	0.00000E+000	7.09000E-002	1.70966E-004	10	...........	0
	364	7.3	8.36015E-002	7.76584E-007	0.00000E+000	8.39000E-002	1.65712E-004	10	...........	0
	377	7.56	9.65955E-002	-1.37529E-006	0.00000E+000	9.69000E-002	1.70215E-004	10	...........	0
	390	7.82	1.09557E-001	-1.18846E-006	0.00000E+000	1.09900E-001	1.67463E-004	10	...........	0
	403	8.08	1.22538E-001	-1.37195E-006	0.00000E+000	1.22900E-001	1.77972E-004	10	...........	0
	416	8.34	1.35761E-001	3.67077E-006	0.00000E+000	1.35900E-001	1.44611E-004	10	...........	0
	429	8.6	1.48514E-001	3.42712E-008	0.00000E+000	1.48900E-001	1.68547E-004	10	...........	0
	442	8.86	1.61525E-001	-9.76609E-007	0.00000E+000	1.61900E-001	1.75303E-004	10	...........	0
	455	9.12	1.74731E-001	-1.65053E-006	0.00000E+000	1.74900E-001	1.71466E-004	10	...........	0
	468	9.38	1.87554E-001	-1.39364E-006	0.00000E+000	1.87900E-001	1.66796E-004	10	...........	0
	481	9.64	2.00522E-001	-8.84862E-007	0.00000E+000	2.00900E-001	1.59790E-004	10	...........	0
	494	9.9	2.13480E-001	-1.61717E-006	0.00000E+000	2.13900E-001	1.74469E-004	10	...........	0
[...]
	793	15.88	5.12356E-001	1.44050E-006	0.00000E+000	5.12900E-001	1.66796E-004	10	...........	0
	806	16.14	5.25192E-001	2.20283E-006	0.00000E+000	5.25900E-001	1.67547E-004	10	...........	0
	819	16.4	5.38432E-001	5.33388E-006	0.00000E+000	5.38900E-001	1.41108E-004	10	...........	0
	832	16.66	5.51115E-001	7.26541E-007	0.00000E+000	5.51900E-001	1.70299E-004	10	...........	0
	845	16.92	5.64434E-001	5.37559E-006	0.00000E+000	5.64900E-001	1.43277E-004	10	...........	0
	858	17.18	5.77041E-001	7.63239E-007	0.00000E+000	5.77900E-001	1.71633E-004	10	...........	0
	871	17.44	5.90497E-001	5.24547E-006	0.00000E+000	5.90900E-001	1.41859E-004	10	...........	0
	884	17.7	6.03255E-001	6.58148E-007	0.00000E+000	6.03900E-001	1.69298E-004	10	...........	0
	897	17.96	6.16273E-001	-2.35964E-007	0.00000E+000	6.16900E-001	1.81058E-004	10	...........	0
	910	18.22	6.29163E-001	1.22364E-006	0.00000E+000	6.29900E-001	1.66296E-004	10	...........	0
	923	18.48	6.42100E-001	2.33628E-006	0.00000E+000	6.42900E-001	1.76888E-004	10	...........	0
	936	18.74	6.55055E-001	1.01179E-006	0.00000E+000	6.55900E-001	1.74219E-004	10	...........	0
	949	19	6.68085E-001	1.46218E-006	0.00000E+000	6.68900E-001	1.75803E-004	10	...........	0
	962	19.26	6.80975E-001	1.60230E-006	0.00000E+000	6.81900E-001	1.81808E-004	10	...........	0
	975	19.52	6.94064E-001	1.96095E-006	0.00000E+000	6.94900E-001	1.64544E-004	10	...........	0
	988	19.78	7.07006E-001	2.95682E-006	0.00000E+000	7.07900E-001	1.71466E-004	10	...........	0
	1001	20.04	7.20148E-001	3.37385E-006	0.00000E+000	7.20900E-001	1.59540E-004	10	...........	0
	1014	20.3	7.33148E-001	1.52390E-006	0.00000E+000	7.33900E-001	1.72134E-004	10	...........	0
	1027	20.56	7.46005E-001	1.26534E-006	0.00000E+000	7.46900E-001	1.75553E-004	10	...........	0
	1040	20.82	7.58983E-001	1.09186E-006	0.00000E+000	7.59900E-001	1.75386E-004	10	...........	0
	1053	21.08	7.71987E-001	1.08018E-006	0.00000E+000	7.72900E-001	1.74386E-004	10	...........	0
	1066	21.34	7.84953E-001	1.34708E-006	0.00000E+000	7.85900E-001	1.80224E-004	10	...........	0
	1079	21.6	7.97908E-001	7.94933E-007	0.00000E+000	7.98900E-001	1.78389E-004	10	...........	0
	1092	21.86	8.10939E-001	1.47886E-006	0.00000E+000	8.11900E-001	1.82309E-004	10	...........	0
	1105	22.12	8.23910E-001	1.66903E-006	0.00000E+000	8.24900E-001	1.75053E-004	10	...........	0
	1118	22.38	8.37142E-001	1.63233E-006	0.00000E+000	8.37900E-001	1.75136E-004	10	...........	0
	1131	22.64	8.49980E-001	1.51556E-006	0.00000E+000	8.50900E-001	1.77722E-004	10	...........	0
	1144	22.9	8.62969E-001	2.34628E-006	0.00000E+000	8.63900E-001	1.65545E-004	10	...........	0
	1157	23.16	8.75959E-001	1.67236E-006	0.00000E+000	8.76900E-001	1.75803E-004	10	...........	0
	1170	23.42	8.88955E-001	2.57982E-006	0.00000E+000	8.89900E-001	1.70382E-004	10	...........	0
	1183	23.68	9.01892E-001	1.70072E-006	0.00000E+000	9.02900E-001	1.76220E-004	10	...........	0
	1196	23.94	9.15259E-001	6.24468E-006	0.00000E+000	9.15900E-001	1.43193E-004	10	...........	0
	1209	24.2	9.27869E-001	2.00766E-006	0.00000E+000	9.28900E-001	1.74135E-004	10	...........	0
	1222	24.46	9.41072E-001	1.64567E-006	0.00000E+000	9.41900E-001	1.75470E-004	10	...........	0
	1235	24.72	9.53961E-001	2.62820E-006	0.00000E+000	9.54900E-001	1.64878E-004	10	...........	0
	1248	24.98	9.66887E-001	1.43549E-006	0.00000E+000	9.67900E-001	1.76971E-004	10	...........	0
	1261	25.24	9.80096E-001	6.11123E-006	0.00000E+000	9.80900E-001	1.50700E-004	10	...........	0
	1274	25.5	9.92851E-001	1.57061E-006	0.00000E+000	9.93900E-001	1.80641E-004	10	...........	0
	1285	25.72	1.00382E+000	1.88422E-006	0.00000E+000	1.00490E+000	1.80390E-004	10	...........	0