Folder: Julia/20191129/matning1 (part 2)

File: CVTESTKRISTALL4BOX5_3.DTA
EXPLAIN
TAG	CV
TITLE	LABEL	CV	Test &Identifier
DATE	LABEL	11/29/2019	Date
TIME	LABEL	11:09:48	Time
NOTES	NOTES	1	&Notes...

PSTAT	PSTAT	REF600-16093	Potentiostat
VINIT	POTEN	0.00000E+000	T	Initial &E (V)
VLIMIT1	POTEN	8.00000E-001	F	Scan Limit &1 (V)
VLIMIT2	POTEN	-5.00000E-001	F	Scan Limit &2 (V)
VFINAL	POTEN	0.00000E+000	T	Final &E (V)
SCANRATE	QUANT	4.99999E+001	&Scan Rate (mV/s)
STEPSIZE	QUANT	1.00000E+000	St&ep Size (mV)
CYCLES	IQUANT	5	C&ycles (#)
IMODE	SELECTOR	1	I/E Range &Mode
IRANGE	QUANT	1.50000E+001	&Max Current (mA)
AREA	QUANT	1.00000E+000	Electrode &Area (cm^2)
ELECTRODETYPE	SELECTOR	0	Electrode Type
STRIPPING	TOGGLE	F	Used for Stripping
POLARITY	TOGGLE	F	Signal Polarity
CONDIT	TWOPARAM	F	1.50000E+001	0.00000E+000	Conditionin&g	Time(s)	E(V)
DELAY	TWOPARAM	T	5.00000E+000	0.00000E+000	Init. De&lay	Time(s)	Stab.(mV/s)
EQDELAY	QUANT	3.00000E+000	Equil. &Time (s)
IRCOMP	SELECTOR	0	IRCom&p
PFCOR	QUANT	0.00000E+000	PF Corr. (ohm)
SAMPLINGMODE	SELECTOR	2	Sampling &Mode
OCVCURVE	TABLE	20
	Pt	T	Vf	Vm	Ach	Over
	#	s	V vs. Ref.	V	V	bits
	0	0.25	1.07525E-001	1.07525E-001	7.78503E-005	...........
	1	0.5	1.07628E-001	1.12935E-001	8.24752E-005	...........
	2	0.75	1.08096E-001	1.09300E-001	7.92253E-005	...........
	3	1	1.08933E-001	1.09597E-001	8.00586E-005	...........
	4	1.25	1.09687E-001	1.10751E-001	7.88086E-005	...........
	5	1.5	1.10082E-001	1.11591E-001	7.37253E-005	...........
	6	1.75	1.10215E-001	1.04581E-001	7.93502E-005	...........
	7	2	1.09882E-001	1.04411E-001	7.91419E-005	...........
	8	2.25	1.08875E-001	1.12463E-001	7.49753E-005	...........
	9	2.5	1.07918E-001	1.09062E-001	8.11002E-005	...........
	10	2.75	1.07918E-001	1.10583E-001	8.20169E-005	...........
	11	3	1.08718E-001	1.10997E-001	8.15169E-005	...........
	12	3.25	1.09574E-001	1.08284E-001	7.91836E-005	...........
	13	3.5	1.09897E-001	1.03812E-001	7.88503E-005	...........
	14	3.75	1.09355E-001	1.08073E-001	7.98086E-005	...........
	15	4	1.08322E-001	1.12079E-001	7.79336E-005	...........
	16	4.25	1.07806E-001	1.07984E-001	7.99336E-005	...........
	17	4.5	1.08191E-001	1.10248E-001	7.53503E-005	...........
	18	4.75	1.08927E-001	1.11233E-001	7.94336E-005	...........
	19	5	1.09598E-001	1.12079E-001	7.63086E-005	...........
EOC	QUANT	0.1095983	Open Circuit (V)
PSTATMODEL	IQUANT	4	Pstat Model
PSTATSECTION	LABEL	REF600-16093	Pstat Section
PSTATSERIALNO	LABEL	16093	Pstat Serial Number
CTRLMODE	IQUANT	1	Control Mode
IESTAB	IQUANT	2	I/E Stability
CASPEED	IQUANT	2	Control Amp Speed
CONVENTION	IQUANT	1	Current Convention
ICHRANGE	IQUANT	2	Ich Range
ICHRANGEMODE	TOGGLE	F	Ich Auto Range
ICHOFFSETENABLE	TOGGLE	F	Ich Offset Enable
ICHOFFSET	QUANT	0	Ich Offset (V)
ICHFILTER	IQUANT	2	Ich Filter
VCHRANGE	IQUANT	2	Vch Range
VCHRANGEMODE	TOGGLE	F	Vch Auto Range
VCHOFFSETENABLE	TOGGLE	F	Vch Offset Enable
VCHOFFSET	QUANT	0	Vch Offset (V)
VCHFILTER	IQUANT	2	Vch Filter
ACHRANGE	IQUANT	2	Ach Range
ACHOFFSETENABLE	TOGGLE	F	Ach Offset Enable
ACHOFFSET	QUANT	0	Ach Offset (V)
ACHFILTER	IQUANT	1	Ach Filter
IERANGELOWERLIMIT	IQUANT	1	I/E Range Lower Limit
IERANGEMODE	TOGGLE	F	I/E AutoRange
IERANGE	IQUANT	10	I/E Range
POSFEEDENABLE	TOGGLE	F	Positive Feedback IR Comp
POSFEEDRESISTANCE	QUANT	0	Positive Feedback Resistance (ohm)
ACHSELECT	IQUANT	0	Ach Select
CABLEID	IQUANT	14	Cable ID
DCCALDATE	LABEL	11/5/2019	DC Calibration Date
ACCALDATE	LABEL		AC Calibration Date
THERMOSELECT	IQUANT	1	Thermo Select
FRAMEWORKVERSION	QUANT	6.12	Framework Version
INSTRUMENTVERSION	LABEL	3.11	Instrument Version
CURVE1	TABLE
	Pt	T	Vf	Im	Vu	Sig	Ach	IERange	Over
	#	s	V vs. Ref.	A	V	V	V	#	bits
	0	0.02	1.09270E-001	-1.78731E-006	0.00000E+000	1.09600E-001	7.47207E-005	10	...........
	19	0.4	1.28369E-001	-2.06923E-006	0.00000E+000	1.28600E-001	6.85490E-005	10	...........
	38	0.78	1.47301E-001	-2.03086E-006	0.00000E+000	1.47600E-001	6.55465E-005	10	...........
	57	1.16	1.66182E-001	-1.98749E-006	0.00000E+000	1.66600E-001	7.49709E-005	10	...........
	76	1.54	1.85142E-001	-1.91910E-006	0.00000E+000	1.85600E-001	6.88826E-005	10	...........
	95	1.92	2.04167E-001	-1.67889E-006	0.00000E+000	2.04600E-001	7.06340E-005	10	...........
	114	2.3	2.23184E-001	-1.80066E-006	0.00000E+000	2.23600E-001	6.92996E-005	10	...........
	133	2.68	2.42134E-001	-1.81567E-006	0.00000E+000	2.42600E-001	7.03004E-005	10	...........
	152	3.06	2.61170E-001	-1.56545E-006	0.00000E+000	2.61600E-001	6.92162E-005	10	...........
	171	3.44	2.80259E-001	-1.98415E-006	0.00000E+000	2.80600E-001	7.04672E-005	10	...........
	190	3.82	2.99117E-001	-1.70724E-006	0.00000E+000	2.99600E-001	7.03838E-005	10	...........
	209	4.2	3.18046E-001	-1.91076E-006	0.00000E+000	3.18600E-001	7.04672E-005	10	...........
	228	4.58	3.36984E-001	-1.85571E-006	0.00000E+000	3.37600E-001	7.54713E-005	10	...........
	247	4.96	3.56064E-001	-2.23937E-006	0.00000E+000	3.56600E-001	6.50461E-005	10	...........
	266	5.34	3.75099E-001	-1.46203E-006	0.00000E+000	3.75600E-001	6.64639E-005	10	...........
	285	5.72	3.94024E-001	-2.58301E-006	0.00000E+000	3.94600E-001	7.73895E-005	10	...........
	304	6.1	4.13109E-001	-2.09758E-006	0.00000E+000	4.13600E-001	6.78817E-005	10	...........
	323	6.48	4.32036E-001	-2.00917E-006	0.00000E+000	4.32600E-001	6.59635E-005	10	...........
	342	6.86	4.50886E-001	-2.07924E-006	0.00000E+000	4.51600E-001	7.59717E-005	10	...........
	361	7.24	4.69906E-001	-2.23771E-006	0.00000E+000	4.70600E-001	6.99668E-005	10	...........
	380	7.62	4.88945E-001	-2.66808E-006	0.00000E+000	4.89600E-001	7.64721E-005	10	...........
	399	8	5.07968E-001	-2.74648E-006	0.00000E+000	5.08600E-001	7.07174E-005	10	...........
	418	8.38	5.26937E-001	-2.83323E-006	0.00000E+000	5.27600E-001	7.36364E-005	10	...........
	437	8.76	5.45938E-001	-2.66975E-006	0.00000E+000	5.46600E-001	7.51377E-005	10	...........
	456	9.14	5.64988E-001	-2.64473E-006	0.00000E+000	5.65600E-001	7.03004E-005	10	...........
	475	9.52	5.83902E-001	-2.52963E-006	0.00000E+000	5.84600E-001	7.34697E-005	10	...........
	494	9.9	6.02697E-001	-2.88160E-006	0.00000E+000	6.03600E-001	7.02170E-005	10	...........
	513	10.28	6.21754E-001	-2.36615E-006	0.00000E+000	6.22600E-001	7.23854E-005	10	...........
	532	10.66	6.40797E-001	-2.27941E-006	0.00000E+000	6.41600E-001	6.71311E-005	10	...........
	551	11.04	6.59807E-001	-2.14096E-006	0.00000E+000	6.60600E-001	7.25522E-005	10	...........
	570	11.42	6.78767E-001	-2.04921E-006	0.00000E+000	6.79600E-001	7.03004E-005	10	...........
	589	11.8	6.97817E-001	-2.43121E-006	0.00000E+000	6.98600E-001	7.06340E-005	10	...........
	608	12.18	7.16731E-001	-2.28608E-006	0.00000E+000	7.17600E-001	5.92080E-005	10	...........
	627	12.56	7.35675E-001	-2.83990E-006	0.00000E+000	7.36600E-001	6.60469E-005	10	...........
	646	12.94	7.54632E-001	-2.74648E-006	0.00000E+000	7.55600E-001	7.30526E-005	10	...........
	665	13.32	7.73700E-001	-2.17265E-006	0.00000E+000	7.74600E-001	7.06340E-005	10	...........
	684	13.7	7.92738E-001	-2.29943E-006	0.00000E+000	7.93600E-001	6.39619E-005	10	...........
	703	14.08	7.85723E-001	-2.52629E-006	0.00000E+000	7.86600E-001	6.82987E-005	10	...........
	722	14.46	7.66774E-001	-2.33112E-006	0.00000E+000	7.67600E-001	6.62971E-005	10	...........
	741	14.84	7.47733E-001	-2.26440E-006	0.00000E+000	7.48600E-001	6.87992E-005	10	...........
	760	15.22	7.28709E-001	-2.30110E-006	0.00000E+000	7.29600E-001	6.63805E-005	10	...........
[...]
	12781	255.64	-1.09186E-001	-2.26940E-006	0.00000E+000	-1.09000E-001	7.03838E-005	10	...........
	12787	255.76	-1.03103E-001	-2.23437E-006	0.00000E+000	-1.03000E-001	6.78817E-005	10	...........
	12793	255.88	-9.71401E-002	-2.20101E-006	0.00000E+000	-9.70000E-002	7.52211E-005	10	...........
	12799	256	-9.11961E-002	-2.35781E-006	0.00000E+000	-9.10000E-002	7.43871E-005	10	...........
	12805	256.12	-8.52546E-002	-2.25272E-006	0.00000E+000	-8.50000E-002	7.63887E-005	10	...........
	12811	256.24	-7.91173E-002	-2.14930E-006	0.00000E+000	-7.90000E-002	7.17182E-005	10	...........
	12817	256.36	-7.31510E-002	-2.11260E-006	0.00000E+000	-7.30000E-002	7.18016E-005	10	...........
	12823	256.48	-6.71872E-002	-2.06756E-006	0.00000E+000	-6.70000E-002	6.97166E-005	10	...........
	12829	256.6	-6.12691E-002	-1.83069E-006	0.00000E+000	-6.10000E-002	7.45539E-005	10	...........
	12835	256.72	-5.51577E-002	-1.73894E-006	0.00000E+000	-5.50000E-002	6.68809E-005	10	...........
	12841	256.84	-4.91492E-002	-1.97414E-006	0.00000E+000	-4.90000E-002	6.63805E-005	10	...........
	12847	256.96	-4.31910E-002	-1.95413E-006	0.00000E+000	-4.30000E-002	6.90494E-005	10	...........
	12853	257.08	-3.73252E-002	-1.95913E-006	0.00000E+000	-3.70000E-002	6.90494E-005	10	...........
	12859	257.2	-3.11753E-002	-2.07256E-006	0.00000E+000	-3.10000E-002	6.22938E-005	10	...........
	12865	257.32	-2.51875E-002	-1.98916E-006	0.00000E+000	-2.50000E-002	7.09676E-005	10	...........
	12871	257.44	-1.92102E-002	-2.36615E-006	0.00000E+000	-1.90000E-002	7.09676E-005	10	...........
	12877	257.56	-1.32496E-002	-2.51795E-006	0.00000E+000	-1.30000E-002	7.17182E-005	10	...........
	12883	257.68	-7.19274E-003	-1.95746E-006	0.00000E+000	-6.99998E-003	6.37117E-005	10	...........
	12889	257.8	-1.18816E-003	-2.64640E-006	0.00000E+000	-9.99987E-004	6.73813E-005	10	...........
	12895	257.92	4.68156E-003	-2.59802E-006	0.00000E+000	5.00001E-003	6.31278E-005	10	...........
	12901	258.04	1.06720E-002	-2.73314E-006	0.00000E+000	1.10000E-002	7.20518E-005	10	...........
	12907	258.16	1.67757E-002	-2.46290E-006	0.00000E+000	1.70000E-002	6.67975E-005	10	...........
	12913	258.28	2.27833E-002	-2.35281E-006	0.00000E+000	2.30000E-002	6.80485E-005	10	...........
	12919	258.4	2.87115E-002	-2.05255E-006	0.00000E+000	2.90000E-002	6.72145E-005	10	...........
	12925	258.52	3.46520E-002	-2.29109E-006	0.00000E+000	3.50000E-002	7.00502E-005	10	...........
	12931	258.64	4.07537E-002	-2.31110E-006	0.00000E+000	4.10000E-002	5.82906E-005	10	...........
	12937	258.76	4.67767E-002	-1.86405E-006	0.00000E+000	4.70000E-002	6.32947E-005	10	...........
	12943	258.88	5.27096E-002	-2.19434E-006	0.00000E+000	5.30000E-002	6.79651E-005	10	...........
	12949	259	5.86244E-002	-2.37783E-006	0.00000E+000	5.90000E-002	6.90494E-005	10	...........
	12955	259.12	6.46294E-002	-2.56466E-006	0.00000E+000	6.50000E-002	5.93748E-005	10	...........
	12961	259.24	7.07753E-002	-1.95746E-006	0.00000E+000	7.10000E-002	7.19684E-005	10	...........
	12967	259.36	7.66976E-002	-1.90909E-006	0.00000E+000	7.70000E-002	6.21270E-005	10	...........
	12973	259.48	8.26086E-002	-1.56045E-006	0.00000E+000	8.30000E-002	6.76315E-005	10	...........
	12979	259.6	8.86657E-002	-2.02919E-006	0.00000E+000	8.90000E-002	6.86324E-005	10	...........
	12985	259.72	9.47282E-002	-2.75983E-006	0.00000E+000	9.50000E-002	6.44623E-005	10	...........
	12991	259.84	1.00676E-001	-2.09758E-006	0.00000E+000	1.01000E-001	6.75481E-005	10	...........
	12997	259.96	1.06586E-001	-2.30443E-006	0.00000E+000	1.07000E-001	7.49709E-005	10	...........
	13000	260.02	1.09648E-001	-2.03086E-006	0.00000E+000	1.10000E-001	7.02170E-005	10	...........

File: CVTESTKRISTALL4BOX5_4.DTA
EXPLAIN
TAG	CV
TITLE	LABEL	CV	Test &Identifier
DATE	LABEL	11/29/2019	Date
TIME	LABEL	11:19:13	Time
NOTES	NOTES	1	&Notes...

PSTAT	PSTAT	REF600-16093	Potentiostat
VINIT	POTEN	0.00000E+000	T	Initial &E (V)
VLIMIT1	POTEN	8.00000E-001	F	Scan Limit &1 (V)
VLIMIT2	POTEN	-5.00000E-001	F	Scan Limit &2 (V)
VFINAL	POTEN	0.00000E+000	T	Final &E (V)
SCANRATE	QUANT	4.99999E+001	&Scan Rate (mV/s)
STEPSIZE	QUANT	1.00000E+000	St&ep Size (mV)
CYCLES	IQUANT	5	C&ycles (#)
IMODE	SELECTOR	1	I/E Range &Mode
IRANGE	QUANT	1.50000E+001	&Max Current (mA)
AREA	QUANT	1.00000E+000	Electrode &Area (cm^2)
ELECTRODETYPE	SELECTOR	0	Electrode Type
STRIPPING	TOGGLE	F	Used for Stripping
POLARITY	TOGGLE	F	Signal Polarity
CONDIT	TWOPARAM	F	1.50000E+001	0.00000E+000	Conditionin&g	Time(s)	E(V)
DELAY	TWOPARAM	T	5.00000E+000	0.00000E+000	Init. De&lay	Time(s)	Stab.(mV/s)
EQDELAY	QUANT	3.00000E+000	Equil. &Time (s)
IRCOMP	SELECTOR	0	IRCom&p
PFCOR	QUANT	0.00000E+000	PF Corr. (ohm)
SAMPLINGMODE	SELECTOR	2	Sampling &Mode
OCVCURVE	TABLE	20
	Pt	T	Vf	Vm	Ach	Over
	#	s	V vs. Ref.	V	V	bits
	0	0.25	7.55174E-002	7.55174E-002	7.36837E-005	...........
	1	0.5	7.49174E-002	4.41098E-002	7.41420E-005	...........
	2	0.75	7.27926E-002	9.59782E-002	7.58503E-005	...........
	3	1	6.98809E-002	3.66473E-002	8.13919E-005	...........
	4	1.25	6.74300E-002	7.47274E-002	7.66836E-005	...........
	5	1.5	6.60592E-002	1.02990E-001	7.58920E-005	...........
	6	1.75	6.78570E-002	6.73428E-002	7.68920E-005	...........
	7	2	7.37032E-002	1.13645E-001	7.25587E-005	...........
	8	2.25	8.12720E-002	9.38577E-002	7.82253E-005	...........
	9	2.5	8.86484E-002	1.04914E-001	7.27254E-005	...........
	10	2.75	9.47230E-002	9.40681E-002	7.86836E-005	...........
	11	3	9.80862E-002	8.96161E-002	7.57670E-005	...........
	12	3.25	9.86305E-002	1.14661E-001	7.76419E-005	...........
	13	3.5	9.84228E-002	9.58236E-002	7.63920E-005	...........
	14	3.75	9.88994E-002	8.18518E-002	7.32670E-005	...........
	15	4	9.76657E-002	5.24444E-002	7.43087E-005	...........
	16	4.25	9.19820E-002	1.02598E-001	8.11836E-005	...........
	17	4.5	8.37237E-002	2.88063E-002	7.40587E-005	...........
	18	4.75	7.48988E-002	2.57410E-002	7.78919E-005	...........
	19	5	6.42032E-002	6.94136E-002	7.76836E-005	...........
EOC	QUANT	0.0642032	Open Circuit (V)
PSTATMODEL	IQUANT	4	Pstat Model
PSTATSECTION	LABEL	REF600-16093	Pstat Section
PSTATSERIALNO	LABEL	16093	Pstat Serial Number
CTRLMODE	IQUANT	1	Control Mode
IESTAB	IQUANT	2	I/E Stability
CASPEED	IQUANT	2	Control Amp Speed
CONVENTION	IQUANT	1	Current Convention
ICHRANGE	IQUANT	2	Ich Range
ICHRANGEMODE	TOGGLE	F	Ich Auto Range
ICHOFFSETENABLE	TOGGLE	F	Ich Offset Enable
ICHOFFSET	QUANT	0	Ich Offset (V)
ICHFILTER	IQUANT	2	Ich Filter
VCHRANGE	IQUANT	2	Vch Range
VCHRANGEMODE	TOGGLE	F	Vch Auto Range
VCHOFFSETENABLE	TOGGLE	F	Vch Offset Enable
VCHOFFSET	QUANT	0	Vch Offset (V)
VCHFILTER	IQUANT	2	Vch Filter
ACHRANGE	IQUANT	2	Ach Range
ACHOFFSETENABLE	TOGGLE	F	Ach Offset Enable
ACHOFFSET	QUANT	0	Ach Offset (V)
ACHFILTER	IQUANT	1	Ach Filter
IERANGELOWERLIMIT	IQUANT	1	I/E Range Lower Limit
IERANGEMODE	TOGGLE	F	I/E AutoRange
IERANGE	IQUANT	10	I/E Range
POSFEEDENABLE	TOGGLE	F	Positive Feedback IR Comp
POSFEEDRESISTANCE	QUANT	0	Positive Feedback Resistance (ohm)
ACHSELECT	IQUANT	0	Ach Select
CABLEID	IQUANT	14	Cable ID
DCCALDATE	LABEL	11/5/2019	DC Calibration Date
ACCALDATE	LABEL		AC Calibration Date
THERMOSELECT	IQUANT	1	Thermo Select
FRAMEWORKVERSION	QUANT	6.12	Framework Version
INSTRUMENTVERSION	LABEL	3.11	Instrument Version
CURVE1	TABLE
	Pt	T	Vf	Im	Vu	Sig	Ach	IERange	Over
	#	s	V vs. Ref.	A	V	V	V	#	bits
	0	0.02	6.39842E-002	-3.09178E-006	0.00000E+000	6.42000E-002	7.38032E-005	10	...........
	19	0.4	8.29572E-002	-3.20855E-006	0.00000E+000	8.32000E-002	8.43953E-005	10	...........
	38	0.78	1.01887E-001	-3.23357E-006	0.00000E+000	1.02200E-001	7.79733E-005	10	...........
	57	1.16	1.20943E-001	-2.83990E-006	0.00000E+000	1.21200E-001	7.58049E-005	10	...........
	76	1.54	1.39910E-001	-3.42374E-006	0.00000E+000	1.40200E-001	7.28858E-005	10	...........
	95	1.92	1.58940E-001	-2.67475E-006	0.00000E+000	1.59200E-001	7.82235E-005	10	...........
	114	2.3	1.77976E-001	-3.03674E-006	0.00000E+000	1.78200E-001	7.43871E-005	10	...........
	133	2.68	1.96891E-001	-2.94165E-006	0.00000E+000	1.97200E-001	7.42203E-005	10	...........
	152	3.06	2.15796E-001	-3.21022E-006	0.00000E+000	2.16200E-001	8.45620E-005	10	...........
	171	3.44	2.34784E-001	-3.23691E-006	0.00000E+000	2.35200E-001	7.96414E-005	10	...........
	190	3.82	2.53776E-001	-3.06009E-006	0.00000E+000	2.54200E-001	7.43871E-005	10	...........
	209	4.2	2.72833E-001	-3.41540E-006	0.00000E+000	2.73200E-001	7.45539E-005	10	...........
	228	4.58	2.91802E-001	-2.86325E-006	0.00000E+000	2.92200E-001	7.61385E-005	10	...........
	247	4.96	3.10795E-001	-3.61557E-006	0.00000E+000	3.11200E-001	7.20518E-005	10	...........
	266	5.34	3.29942E-001	-2.89328E-006	0.00000E+000	3.30200E-001	7.31360E-005	10	...........
	285	5.72	3.48782E-001	-2.96000E-006	0.00000E+000	3.49200E-001	6.03756E-005	10	...........
	304	6.1	3.67724E-001	-2.15764E-006	0.00000E+000	3.68200E-001	7.57215E-005	10	...........
	323	6.48	3.86624E-001	-3.18019E-006	0.00000E+000	3.87200E-001	6.90494E-005	10	...........
	342	6.86	4.05736E-001	-2.63806E-006	0.00000E+000	4.06200E-001	6.84655E-005	10	...........
	361	7.24	4.24745E-001	-3.09178E-006	0.00000E+000	4.25200E-001	7.09676E-005	10	...........
	380	7.62	4.43672E-001	-3.45377E-006	0.00000E+000	4.44200E-001	7.80567E-005	10	...........
	399	8	4.62762E-001	-3.25693E-006	0.00000E+000	4.63200E-001	7.00502E-005	10	...........
	418	8.38	4.81851E-001	-2.40118E-006	0.00000E+000	4.82200E-001	7.17182E-005	10	...........
	437	8.76	5.00533E-001	-2.76650E-006	0.00000E+000	5.01200E-001	7.54713E-005	10	...........
	456	9.14	5.19554E-001	-2.75816E-006	0.00000E+000	5.20200E-001	7.48875E-005	10	...........
	475	9.52	5.38559E-001	-2.62971E-006	0.00000E+000	5.39200E-001	7.05506E-005	10	...........
	494	9.9	5.57573E-001	-3.31531E-006	0.00000E+000	5.58200E-001	6.32947E-005	10	...........
	513	10.28	5.76534E-001	-3.20688E-006	0.00000E+000	5.77200E-001	7.73061E-005	10	...........
	532	10.66	5.95568E-001	-2.11760E-006	0.00000E+000	5.96200E-001	7.51377E-005	10	...........
	551	11.04	6.14688E-001	-2.58968E-006	0.00000E+000	6.15200E-001	7.41369E-005	10	...........
	570	11.42	6.33516E-001	-2.39785E-006	0.00000E+000	6.34200E-001	7.49709E-005	10	...........
	589	11.8	6.52440E-001	-2.86325E-006	0.00000E+000	6.53200E-001	7.55547E-005	10	...........
	608	12.18	6.71400E-001	-2.54964E-006	0.00000E+000	6.72200E-001	7.30526E-005	10	...........
	627	12.56	6.90487E-001	-2.05255E-006	0.00000E+000	6.91200E-001	7.18016E-005	10	...........
	646	12.94	7.09462E-001	-2.50961E-006	0.00000E+000	7.10200E-001	7.13012E-005	10	...........
	665	13.32	7.28386E-001	-3.17185E-006	0.00000E+000	7.29200E-001	7.55547E-005	10	...........
	684	13.7	7.47483E-001	-2.62971E-006	0.00000E+000	7.48200E-001	6.72979E-005	10	...........
	703	14.08	7.66373E-001	-2.67142E-006	0.00000E+000	7.67200E-001	6.52963E-005	10	...........
	722	14.46	7.85376E-001	-2.47625E-006	0.00000E+000	7.86200E-001	7.23020E-005	10	...........
	741	14.84	7.94395E-001	-2.97502E-006	0.00000E+000	7.95200E-001	7.42203E-005	10	...........
	760	15.22	7.75361E-001	-3.19521E-006	0.00000E+000	7.76200E-001	7.64721E-005	10	...........
[...]
	12779	255.6	-1.57025E-001	-2.99003E-006	0.00000E+000	-1.57000E-001	7.20518E-005	10	...........
	12785	255.72	-1.51022E-001	-2.88160E-006	0.00000E+000	-1.51000E-001	7.62219E-005	10	...........
	12791	255.84	-1.45011E-001	-3.17019E-006	0.00000E+000	-1.45000E-001	7.38032E-005	10	...........
	12797	255.96	-1.38905E-001	-3.52883E-006	0.00000E+000	-1.39000E-001	6.63805E-005	10	...........
	12803	256.08	-1.32988E-001	-3.35535E-006	0.00000E+000	-1.33000E-001	7.25522E-005	10	...........
	12809	256.2	-1.27035E-001	-3.38204E-006	0.00000E+000	-1.27000E-001	7.63887E-005	10	...........
	12815	256.32	-1.21018E-001	-3.30697E-006	0.00000E+000	-1.21000E-001	7.69725E-005	10	...........
	12821	256.44	-1.15039E-001	-3.16852E-006	0.00000E+000	-1.15000E-001	7.68891E-005	10	...........
	12827	256.56	-1.09070E-001	-3.46544E-006	0.00000E+000	-1.09000E-001	7.89741E-005	10	...........
	12833	256.68	-1.03031E-001	-3.35535E-006	0.00000E+000	-1.03000E-001	7.03838E-005	10	...........
	12839	256.8	-9.70372E-002	-2.82322E-006	0.00000E+000	-9.70000E-002	7.93912E-005	10	...........
	12845	256.92	-9.10766E-002	-3.15851E-006	0.00000E+000	-9.10000E-002	7.23020E-005	10	...........
	12851	257.04	-8.50564E-002	-3.48713E-006	0.00000E+000	-8.50000E-002	7.37198E-005	10	...........
	12857	257.16	-7.90328E-002	-3.69064E-006	0.00000E+000	-7.90000E-002	7.55547E-005	10	...........
	12863	257.28	-7.30399E-002	-3.44376E-006	0.00000E+000	-7.30000E-002	7.92243E-005	10	...........
	12869	257.4	-6.70571E-002	-3.13182E-006	0.00000E+000	-6.70000E-002	7.66389E-005	10	...........
	12875	257.52	-6.11250E-002	-3.22023E-006	0.00000E+000	-6.10000E-002	7.76397E-005	10	...........
	12881	257.64	-5.50500E-002	-2.75649E-006	0.00000E+000	-5.50000E-002	7.33862E-005	10	...........
	12887	257.76	-4.90434E-002	-3.02339E-006	0.00000E+000	-4.90000E-002	8.03086E-005	10	...........
	12893	257.88	-4.30531E-002	-2.86659E-006	0.00000E+000	-4.30000E-002	7.51377E-005	10	...........
	12899	258	-3.71416E-002	-2.83990E-006	0.00000E+000	-3.70000E-002	7.73061E-005	10	...........
	12905	258.12	-3.10925E-002	-2.85324E-006	0.00000E+000	-3.10000E-002	7.50543E-005	10	...........
	12911	258.24	-2.50660E-002	-2.61137E-006	0.00000E+000	-2.50000E-002	7.49709E-005	10	...........
	12917	258.36	-1.90643E-002	-2.64806E-006	0.00000E+000	-1.90000E-002	7.62219E-005	10	...........
	12923	258.48	-1.31294E-002	-3.13349E-006	0.00000E+000	-1.30000E-002	7.80567E-005	10	...........
	12929	258.6	-7.08132E-003	-3.20522E-006	0.00000E+000	-6.99998E-003	7.82235E-005	10	...........
	12935	258.72	-1.07299E-003	-3.01839E-006	0.00000E+000	-9.99987E-004	7.18850E-005	10	...........
	12941	258.84	4.78839E-003	-3.06343E-006	0.00000E+000	5.00001E-003	7.20518E-005	10	...........
	12947	258.96	1.07966E-002	-3.24358E-006	0.00000E+000	1.10000E-002	7.43871E-005	10	...........
	12953	259.08	1.68452E-002	-3.13349E-006	0.00000E+000	1.70000E-002	6.85490E-005	10	...........
	12959	259.2	2.28470E-002	-2.93665E-006	0.00000E+000	2.30000E-002	8.10592E-005	10	...........
	12965	259.32	2.88559E-002	-3.10179E-006	0.00000E+000	2.90000E-002	7.23020E-005	10	...........
	12971	259.44	3.47810E-002	-2.68810E-006	0.00000E+000	3.50000E-002	7.36364E-005	10	...........
	12977	259.56	4.08184E-002	-3.17019E-006	0.00000E+000	4.10000E-002	6.97166E-005	10	...........
	12983	259.68	4.68309E-002	-3.75069E-006	0.00000E+000	4.70000E-002	7.31360E-005	10	...........
	12989	259.8	5.28602E-002	-3.55052E-006	0.00000E+000	5.30000E-002	7.33862E-005	10	...........
	12995	259.92	5.87711E-002	-3.19854E-006	0.00000E+000	5.90000E-002	7.34697E-005	10	...........
	13000	260.02	6.37756E-002	-3.38537E-006	0.00000E+000	6.40000E-002	8.33944E-005	10	...........