Folder: Julia/20191104

Note: 20191104/Calibration Results PC5-16093.txt
Calibration Values for REF600-16093  - S/N# 16093
11/5/2019  9:34:29

EXPERIMENTABORTED	TOGGLE	T	Experiment Aborted

File: CHRONOA.DTA
EXPLAIN
TAG	CHRONOA
TITLE	LABEL	Chronoamperometry Scan	Test &Identifier
DATE	LABEL	11/5/2019	Date
TIME	LABEL	9:39:33	Time
NOTES	NOTES	1	&Notes...

PSTAT	PSTAT	REF600-16093	Potentiostat
VPRESTEP	POTEN	0.00000E+000	F	Pre-step Voltage (V)
TPRESTEP	QUANT	5.00000E-001	Pre-step Delay &Time (s)
VSTEP1	POTEN	5.00000E-001	F	Step 1 Voltage (V)
TSTEP1	QUANT	5.00000E+000	Step 1 Time (s)
VSTEP2	POTEN	1.00000E-001	F	Step 2 Voltage (V)
TSTEP2	QUANT	5.00000E+000	Step 2 Time (s)
SAMPLETIME	QUANT	1.00000E-002	Sa&mple Period (s)
ILIMIT	QUANT	1.00000E+000	Limit &I (mA/cm^2)
IMODE	SELECTOR	1	I/E Range &Mode
IRANGE	QUANT	3.00000E-001	&Max Current (mA)
DECIMATE	TOGGLE	T	Decimate
AREA	QUANT	1.00000E+000	Electrode &Area (cm^2)
ELECTRODETYPE	SELECTOR	0	Electrode Type
STRIPPING	TOGGLE	F	Used for Stripping
POLARITY	TOGGLE	F	Signal Polarity
EQDELAY	QUANT	5.00000E+000	Equil. &Time (s)
CONDIT	TWOPARAM	F	1.50000E+001	0.00000E+000	Conditionin&g	Time(s)	E(V)
DELAY	TWOPARAM	F	3.00000E+002	1.00000E-001	Init. De&lay	Time(s)	Stab.(mV/s)
IRCOMP	SELECTOR	0	IRCom&p
PFCOR	QUANT	5.00000E+001	PF Corr. (ohm)
SAMPLINGMODE	SELECTOR	1	Sampling &Mode
EOC	QUANT	0	Open Circuit (V)
PSTATMODEL	IQUANT	4	Pstat Model
PSTATSECTION	LABEL	REF600-16093	Pstat Section
PSTATSERIALNO	LABEL	16093	Pstat Serial Number
CTRLMODE	IQUANT	1	Control Mode
IESTAB	IQUANT	0	I/E Stability
CASPEED	IQUANT	2	Control Amp Speed
CONVENTION	IQUANT	1	Current Convention
ICHRANGE	IQUANT	2	Ich Range
ICHRANGEMODE	TOGGLE	T	Ich Auto Range
ICHOFFSETENABLE	TOGGLE	F	Ich Offset Enable
ICHOFFSET	QUANT	0	Ich Offset (V)
ICHFILTER	IQUANT	2	Ich Filter
VCHRANGE	IQUANT	3	Vch Range
VCHRANGEMODE	TOGGLE	T	Vch Auto Range
VCHOFFSETENABLE	TOGGLE	F	Vch Offset Enable
VCHOFFSET	QUANT	0	Vch Offset (V)
VCHFILTER	IQUANT	2	Vch Filter
ACHRANGE	IQUANT	2	Ach Range
ACHOFFSETENABLE	TOGGLE	F	Ach Offset Enable
ACHOFFSET	QUANT	0	Ach Offset (V)
ACHFILTER	IQUANT	1	Ach Filter
IERANGELOWERLIMIT	IQUANT	1	I/E Range Lower Limit
IERANGEMODE	TOGGLE	F	I/E AutoRange
IERANGE	IQUANT	8	I/E Range
POSFEEDENABLE	TOGGLE	F	Positive Feedback IR Comp
POSFEEDRESISTANCE	QUANT	0	Positive Feedback Resistance (ohm)
ACHSELECT	IQUANT	0	Ach Select
CABLEID	IQUANT	14	Cable ID
DCCALDATE	LABEL	ERROR	DC Calibration Date
ACCALDATE	LABEL	ERROR	AC Calibration Date
THERMOSELECT	IQUANT	1	Thermo Select
FRAMEWORKVERSION	QUANT	6.33	Framework Version
INSTRUMENTVERSION	LABEL	3.50	Instrument Version
CURVE	TABLE	199
	Pt	T	Vf	Im	Vu	Sig	Ach	IERange	Over
	#	s	V vs. Ref.	A	V	V	V	#	bits
	0	-0.49	9.92389E+000	7.72630E-008	0.00000E+000	0.00000E+000	7.76027E-005	8	..ch.......
	2	-0.47	9.92729E+000	7.60962E-008	0.00000E+000	0.00000E+000	7.67694E-005	8	..ch.......
	4	-0.45	9.92803E+000	7.42628E-008	0.00000E+000	0.00000E+000	8.01026E-005	8	..ch.......
	6	-0.43	9.92997E+000	7.62629E-008	0.00000E+000	0.00000E+000	8.67692E-005	8	..ch.......
	8	-0.41	9.93058E+000	7.35961E-008	0.00000E+000	0.00000E+000	8.67692E-005	8	..ch.......
	10	-0.39	9.93273E+000	7.69296E-008	0.00000E+000	0.00000E+000	8.84359E-005	8	..ch.......
	12	-0.37	9.93336E+000	8.20965E-008	0.00000E+000	0.00000E+000	8.51026E-005	8	..ch.......
	14	-0.35	9.93473E+000	7.72630E-008	0.00000E+000	0.00000E+000	9.26025E-005	8	..ch.......
	16	-0.33	9.93538E+000	8.44299E-008	0.00000E+000	0.00000E+000	9.17691E-005	8	..ch.......
	18	-0.31	9.93749E+000	7.89297E-008	0.00000E+000	0.00000E+000	8.42693E-005	8	..ch.......
	20	-0.29	9.93793E+000	8.12631E-008	0.00000E+000	0.00000E+000	8.34359E-005	8	..ch.......
	22	-0.27	9.94028E+000	8.22631E-008	0.00000E+000	0.00000E+000	9.59357E-005	8	..ch.......
	24	-0.25	9.93936E+000	8.42632E-008	0.00000E+000	0.00000E+000	9.09358E-005	8	..ch.......
	26	-0.23	9.94520E+000	8.40965E-008	0.00000E+000	0.00000E+000	8.09360E-005	8	..ch.......
	28	-0.21	9.94228E+000	8.22631E-008	0.00000E+000	0.00000E+000	7.92693E-005	8	..ch.......
	30	-0.19	9.94898E+000	8.17631E-008	0.00000E+000	0.00000E+000	8.42693E-005	8	..ch.......
	32	-0.17	9.94580E+000	8.09298E-008	0.00000E+000	0.00000E+000	8.09360E-005	8	..ch.......
	34	-0.15	9.94932E+000	7.90964E-008	0.00000E+000	0.00000E+000	8.92692E-005	8	..ch.......
	36	-0.13	9.94866E+000	7.87630E-008	0.00000E+000	0.00000E+000	8.59359E-005	8	..ch.......
	38	-0.11	9.94969E+000	7.94297E-008	0.00000E+000	0.00000E+000	7.59360E-005	8	..ch.......
	40	-0.09	9.95173E+000	7.52629E-008	0.00000E+000	0.00000E+000	9.01025E-005	8	..ch.......
	42	-0.07	9.95196E+000	8.27632E-008	0.00000E+000	0.00000E+000	9.26025E-005	8	..ch.......
	44	-0.05	9.95346E+000	8.17631E-008	0.00000E+000	0.00000E+000	7.01028E-005	8	..ch.......
	46	-0.03	9.95360E+000	8.39299E-008	0.00000E+000	0.00000E+000	8.01026E-005	8	..ch.......
	48	-0.01	9.95337E+000	8.35965E-008	0.00000E+000	0.00000E+000	9.92690E-005	8	..ch.......
	50	0.01	9.95625E+000	7.79296E-008	0.00000E+000	5.00000E-001	9.17691E-005	8	..ch.......
	52	0.03	9.95677E+000	7.84297E-008	0.00000E+000	5.00000E-001	9.59357E-005	8	..ch.......
	54	0.05	9.95771E+000	8.52633E-008	0.00000E+000	5.00000E-001	8.59359E-005	8	..ch.......
	56	0.07	9.95963E+000	8.47632E-008	0.00000E+000	5.00000E-001	8.67692E-005	8	..ch.......
	58	0.09	9.96028E+000	8.32632E-008	0.00000E+000	5.00000E-001	9.09358E-005	8	..ch.......
	60	0.11	9.95910E+000	8.95968E-008	0.00000E+000	5.00000E-001	8.34359E-005	8	..ch.......
	62	0.13	9.96081E+000	8.44299E-008	0.00000E+000	5.00000E-001	8.17693E-005	8	..ch.......
	64	0.15	9.95920E+000	8.69300E-008	0.00000E+000	5.00000E-001	8.09360E-005	8	..ch.......
	66	0.17	9.96005E+000	7.87630E-008	0.00000E+000	5.00000E-001	9.84357E-005	8	..ch.......
	68	0.19	9.96121E+000	8.07631E-008	0.00000E+000	5.00000E-001	8.17693E-005	8	..ch.......
	70	0.21	9.95979E+000	8.87634E-008	0.00000E+000	5.00000E-001	7.51027E-005	8	..ch.......
	72	0.23	9.96260E+000	8.07631E-008	0.00000E+000	5.00000E-001	8.42693E-005	8	..ch.......
	74	0.25	9.96034E+000	8.07631E-008	0.00000E+000	5.00000E-001	7.42694E-005	8	..ch.......
	76	0.27	9.96466E+000	7.99297E-008	0.00000E+000	5.00000E-001	8.59359E-005	8	..ch.......
	78	0.29	9.96427E+000	8.15965E-008	0.00000E+000	5.00000E-001	8.17693E-005	8	..ch.......
	80	0.31	9.96440E+000	8.74300E-008	0.00000E+000	5.00000E-001	8.92692E-005	8	..ch.......
	82	0.33	9.96770E+000	8.55966E-008	0.00000E+000	5.00000E-001	7.76027E-005	8	..ch.......
	84	0.35	9.96713E+000	8.37632E-008	0.00000E+000	5.00000E-001	7.17694E-005	8	..ch.......
	86	0.37	9.96923E+000	8.52633E-008	0.00000E+000	5.00000E-001	8.26026E-005	8	..ch.......
	88	0.39	9.97032E+000	8.30965E-008	0.00000E+000	5.00000E-001	9.42691E-005	8	..ch.......
	90	0.41	9.97105E+000	8.49299E-008	0.00000E+000	5.00000E-001	8.01026E-005	8	..ch.......
	92	0.43	9.97007E+000	8.49299E-008	0.00000E+000	5.00000E-001	8.76025E-005	8	..ch.......
	94	0.45	9.97250E+000	8.52633E-008	0.00000E+000	5.00000E-001	9.67691E-005	8	..ch.......
	96	0.47	9.97370E+000	8.42632E-008	0.00000E+000	5.00000E-001	8.84359E-005	8	..ch.......
	98	0.49	9.97419E+000	7.97631E-008	0.00000E+000	5.00000E-001	8.76025E-005	8	..ch.......
	100	0.51	9.97683E+000	8.22631E-008	0.00000E+000	5.00000E-001	7.42694E-005	8	..ch.......
	102	0.53	9.97616E+000	7.97631E-008	0.00000E+000	5.00000E-001	1.00936E-004	8	..ch.......
	104	0.55	9.97872E+000	8.19298E-008	0.00000E+000	5.00000E-001	9.42691E-005	8	..ch.......
	106	0.57	9.97621E+000	8.57633E-008	0.00000E+000	5.00000E-001	7.51027E-005	8	..ch.......
	108	0.59	9.98112E+000	8.20965E-008	0.00000E+000	5.00000E-001	8.09360E-005	8	..ch.......
	110	0.61	9.97910E+000	8.47632E-008	0.00000E+000	5.00000E-001	8.34359E-005	8	..ch.......
	112	0.81	9.98456E+000	8.40965E-008	0.00000E+000	5.00000E-001	8.26026E-005	8	..ch.......
	114	1.01	9.99024E+000	8.25965E-008	0.00000E+000	5.00000E-001	9.34358E-005	8	..ch.......
	116	1.21	9.99474E+000	7.75963E-008	0.00000E+000	5.00000E-001	8.76025E-005	8	..ch.......
	118	1.41	1.00013E+001	7.72630E-008	0.00000E+000	5.00000E-001	6.92695E-005	8	..ch.......
	120	1.61	1.00077E+001	7.95964E-008	0.00000E+000	5.00000E-001	8.67692E-005	8	..ch.......
	122	3.61	1.00819E+001	7.87630E-008	0.00000E+000	5.00000E-001	9.09358E-005	8	..ch.......
	124	5	1.11926E+001	6.92627E-008	0.00000E+000	5.00000E-001	1.76768E-004	8	.ech.......
	126	5.02	1.11763E+001	7.24294E-008	0.00000E+000	1.00000E-001	1.77601E-004	8	.ech.......
	128	5.04	1.11764E+001	7.02627E-008	0.00000E+000	1.00000E-001	1.70101E-004	8	.ech.......
	130	5.06	1.11958E+001	7.04294E-008	0.00000E+000	1.00000E-001	1.69268E-004	8	.ech.......
	132	5.08	1.12483E+001	6.80959E-008	0.00000E+000	1.00000E-001	1.58435E-004	8	.ech.......
	134	5.1	1.13207E+001	6.79293E-008	0.00000E+000	1.00000E-001	1.35935E-004	8	.ech.......
	136	5.12	1.13545E+001	6.74292E-008	0.00000E+000	1.00000E-001	1.73435E-004	8	.ech.......
	138	5.14	1.13582E+001	7.07627E-008	0.00000E+000	1.00000E-001	1.58435E-004	8	.ech.......
	140	5.16	1.13585E+001	6.42625E-008	0.00000E+000	1.00000E-001	1.50935E-004	8	.ech.......
	142	5.18	1.13525E+001	6.84293E-008	0.00000E+000	1.00000E-001	1.65935E-004	8	.ech.......
	144	5.2	1.13578E+001	6.72626E-008	0.00000E+000	1.00000E-001	1.62601E-004	8	.ech.......
	146	5.22	1.13475E+001	7.09294E-008	0.00000E+000	1.00000E-001	1.50935E-004	8	.ech.......
	148	5.24	1.13388E+001	7.15961E-008	0.00000E+000	1.00000E-001	1.67601E-004	8	.ech.......
	150	5.26	1.13357E+001	7.12627E-008	0.00000E+000	1.00000E-001	1.75935E-004	8	.ech.......
	152	5.28	1.13388E+001	6.80959E-008	0.00000E+000	1.00000E-001	1.72601E-004	8	.ech.......
	154	5.3	1.13417E+001	7.14294E-008	0.00000E+000	1.00000E-001	1.72601E-004	8	.ech.......
	156	5.32	1.13428E+001	6.82626E-008	0.00000E+000	1.00000E-001	1.70935E-004	8	.ech.......
	158	5.34	1.13447E+001	6.79293E-008	0.00000E+000	1.00000E-001	1.60935E-004	8	.ech.......
	160	5.36	1.13395E+001	6.72626E-008	0.00000E+000	1.00000E-001	1.67601E-004	8	.ech.......
	162	5.38	1.13417E+001	7.25961E-008	0.00000E+000	1.00000E-001	1.55102E-004	8	.ech.......
	164	5.4	1.13398E+001	7.14294E-008	0.00000E+000	1.00000E-001	1.57601E-004	8	.ech.......
	166	5.42	1.13434E+001	7.47629E-008	0.00000E+000	1.00000E-001	1.64268E-004	8	.ech.......
	168	5.44	1.13528E+001	6.82626E-008	0.00000E+000	1.00000E-001	1.60101E-004	8	.ech.......
	170	5.46	1.13623E+001	6.85960E-008	0.00000E+000	1.00000E-001	1.57601E-004	8	.ech.......
	172	5.48	1.13739E+001	7.12627E-008	0.00000E+000	1.00000E-001	1.52602E-004	8	.ech.......
	174	5.5	1.13747E+001	7.22628E-008	0.00000E+000	1.00000E-001	1.64268E-004	8	.ech.......
	176	5.52	1.13831E+001	7.30961E-008	0.00000E+000	1.00000E-001	1.65935E-004	8	.ech.......
	178	5.54	1.13777E+001	7.02627E-008	0.00000E+000	1.00000E-001	1.58435E-004	8	.ech.......
	180	5.56	1.13856E+001	7.17627E-008	0.00000E+000	1.00000E-001	1.60935E-004	8	.ech.......
	182	5.58	1.13787E+001	7.15961E-008	0.00000E+000	1.00000E-001	1.62601E-004	8	.ech.......
	184	5.6	1.13872E+001	6.90960E-008	0.00000E+000	1.00000E-001	1.63435E-004	8	.ech.......
	186	5.71	1.08297E+001	8.05964E-008	0.00000E+000	1.00000E-001	8.59359E-005	8	.ech.......
	188	5.91	1.08919E+001	7.69296E-008	0.00000E+000	1.00000E-001	8.67692E-005	8	.ech.......
	190	6.11	1.08975E+001	7.67629E-008	0.00000E+000	1.00000E-001	8.34359E-005	8	.ech.......
	192	6.31	1.00968E+001	8.14298E-008	0.00000E+000	1.00000E-001	9.59357E-005	8	..ch.......
	194	6.51	1.00341E+001	7.79296E-008	0.00000E+000	1.00000E-001	8.34359E-005	8	..ch.......
	196	7.61	1.10520E+001	7.69296E-008	0.00000E+000	1.00000E-001	9.92690E-005	8	.ech.......
	198	9.61	1.06689E+001	8.25965E-008	0.00000E+000	1.00000E-001	7.51027E-005	8	..ch.......