Folder: Julia/20190222 HUPD (part 2)

File: CV_test_3.DTA
EXPLAIN
TAG	CV
TITLE	LABEL	CV	Test &Identifier
DATE	LABEL	2/22/2019	Date
TIME	LABEL	11:02:58	Time
NOTES	NOTES	3	&Notes...
	0.5 M H2SO4
	Pt-wire CE
	byt CE/WE
PSTAT	PSTAT	REF600-16093	Potentiostat
VINIT	POTEN	0.00000E+000	T	Initial &E (V)
VLIMIT1	POTEN	9.00000E-001	F	Scan Limit &1 (V)
VLIMIT2	POTEN	-6.95000E-001	F	Scan Limit &2 (V)
VFINAL	POTEN	0.00000E+000	T	Final &E (V)
SCANRATE	QUANT	2.00000E+002	&Scan Rate (mV/s)
STEPSIZE	QUANT	1.00000E+001	St&ep Size (mV)
CYCLES	IQUANT	10	C&ycles (#)
IMODE	SELECTOR	1	I/E Range &Mode
IRANGE	QUANT	1.00000E+001	&Max Current (mA)
AREA	QUANT	1.00000E+000	Electrode &Area (cm^2)
ELECTRODETYPE	SELECTOR	0	Electrode Type
STRIPPING	TOGGLE	F	Used for Stripping
POLARITY	TOGGLE	F	Signal Polarity
CONDIT	TWOPARAM	F	1.50000E+001	0.00000E+000	Conditionin&g	Time(s)	E(V)
DELAY	TWOPARAM	T	5.00000E+000	0.00000E+000	Init. De&lay	Time(s)	Stab.(mV/s)
EQDELAY	QUANT	5.00000E+000	Equil. &Time (s)
IRCOMP	SELECTOR	0	IRCom&p
PFCOR	QUANT	0.00000E+000	PF Corr. (ohm)
SAMPLINGMODE	SELECTOR	2	Sampling &Mode
OCVCURVE	TABLE	20
	Pt	T	Vf	Vm	Ach	Over
	#	s	V vs. Ref.	V	V	bits
	0	0.25	-2.01629E-001	-2.01629E-001	6.41597E-005	...........
	1	0.5	-2.01624E-001	-2.01407E-001	6.57263E-005	...........
	2	0.75	-2.01603E-001	-2.01454E-001	7.37595E-005	...........
	3	1	-2.01555E-001	-2.01256E-001	7.84261E-005	...........
	4	1.25	-2.01490E-001	-2.01537E-001	6.74596E-005	...........
	5	1.5	-2.01425E-001	-2.00844E-001	7.06596E-005	...........
	6	1.75	-2.01341E-001	-2.00562E-001	6.96929E-005	...........
	7	2	-2.01203E-001	-2.01220E-001	6.56263E-005	...........
	8	2.25	-2.01062E-001	-2.01721E-001	6.80596E-005	...........
	9	2.5	-2.01047E-001	-2.01538E-001	6.88929E-005	...........
	10	2.75	-2.01190E-001	-2.01750E-001	6.84929E-005	...........
	11	3	-2.01381E-001	-2.00997E-001	6.58596E-005	...........
	12	3.25	-2.01479E-001	-2.01075E-001	6.61930E-005	...........
	13	3.5	-2.01427E-001	-2.00959E-001	6.77929E-005	...........
	14	3.75	-2.01282E-001	-2.01133E-001	6.61263E-005	...........
	15	4	-2.01137E-001	-2.00582E-001	6.44930E-005	...........
	16	4.25	-2.01008E-001	-2.00080E-001	7.06929E-005	...........
	17	4.5	-2.00833E-001	-1.99993E-001	6.77263E-005	...........
	18	4.75	-2.00574E-001	-1.99556E-001	6.80596E-005	...........
	19	5	-2.00238E-001	-1.98019E-001	6.70930E-005	...........
EOC	QUANT	-0.2002385	Open Circuit (V)
PSTATMODEL	IQUANT	4	Pstat Model
PSTATSECTION	LABEL	REF600-16093	Pstat Section
PSTATSERIALNO	LABEL	16093	Pstat Serial Number
CTRLMODE	IQUANT	1	Control Mode
IESTAB	IQUANT	2	I/E Stability
CASPEED	IQUANT	2	Control Amp Speed
CONVENTION	IQUANT	1	Current Convention
ICHRANGE	IQUANT	2	Ich Range
ICHRANGEMODE	TOGGLE	F	Ich Auto Range
ICHOFFSETENABLE	TOGGLE	F	Ich Offset Enable
ICHOFFSET	QUANT	0	Ich Offset (V)
ICHFILTER	IQUANT	2	Ich Filter
VCHRANGE	IQUANT	2	Vch Range
VCHRANGEMODE	TOGGLE	F	Vch Auto Range
VCHOFFSETENABLE	TOGGLE	F	Vch Offset Enable
VCHOFFSET	QUANT	0	Vch Offset (V)
VCHFILTER	IQUANT	2	Vch Filter
ACHRANGE	IQUANT	2	Ach Range
ACHOFFSETENABLE	TOGGLE	F	Ach Offset Enable
ACHOFFSET	QUANT	0	Ach Offset (V)
ACHFILTER	IQUANT	1	Ach Filter
IERANGELOWERLIMIT	IQUANT	1	I/E Range Lower Limit
IERANGEMODE	TOGGLE	F	I/E AutoRange
IERANGE	IQUANT	10	I/E Range
POSFEEDENABLE	TOGGLE	F	Positive Feedback IR Comp
POSFEEDRESISTANCE	QUANT	0	Positive Feedback Resistance (ohm)
ACHSELECT	IQUANT	0	Ach Select
CABLEID	IQUANT	14	Cable ID
DCCALDATE	LABEL	2/18/2019	DC Calibration Date
ACCALDATE	LABEL	2/18/2019	AC Calibration Date
THERMOSELECT	IQUANT	1	Thermo Select
FRAMEWORKVERSION	QUANT	6.33	Framework Version
INSTRUMENTVERSION	LABEL	3.50	Instrument Version
CURVE1	TABLE
	Pt	T	Vf	Im	Vu	Sig	Ach	IERange	Over
	#	s	V vs. Ref.	A	V	V	V	#	bits
	0	0.05	-1.99954E-001	-1.70619E-006	0.00000E+000	-2.00250E-001	1.62255E-004	10	...........
	3	0.2	-1.70042E-001	3.50508E-006	0.00000E+000	-1.70250E-001	1.64656E-004	10	...........
	6	0.35	-1.40108E-001	4.59081E-006	0.00000E+000	-1.40250E-001	1.64389E-004	10	...........
	9	0.5	-1.10068E-001	5.78992E-006	0.00000E+000	-1.10250E-001	1.60155E-004	10	...........
	12	0.65	-7.99608E-002	6.81830E-006	0.00000E+000	-8.02500E-002	1.64956E-004	10	...........
	15	0.8	-5.01062E-002	8.43357E-006	0.00000E+000	-5.02500E-002	1.68491E-004	10	...........
	18	0.95	-2.01154E-002	1.03970E-005	0.00000E+000	-2.02500E-002	1.65857E-004	10	...........
	21	1.1	9.82691E-003	1.22063E-005	0.00000E+000	9.75001E-003	1.69725E-004	10	...........
	24	1.25	4.00385E-002	1.56296E-005	0.00000E+000	3.97500E-002	1.68257E-004	10	...........
	27	1.4	6.97951E-002	1.92749E-005	0.00000E+000	6.97500E-002	1.70025E-004	10	...........
	30	1.55	9.97714E-002	2.36439E-005	0.00000E+000	9.97500E-002	1.66990E-004	10	...........
	33	1.7	1.29717E-001	2.94093E-005	0.00000E+000	1.29750E-001	1.68091E-004	10	...........
	36	1.85	1.59740E-001	3.78778E-005	0.00000E+000	1.59750E-001	1.66323E-004	10	...........
	39	2	1.89688E-001	4.90673E-005	0.00000E+000	1.89750E-001	1.68991E-004	10	...........
	42	2.15	2.19647E-001	6.26730E-005	0.00000E+000	2.19750E-001	1.64656E-004	10	...........
	45	2.3	2.49653E-001	7.83828E-005	0.00000E+000	2.49750E-001	1.65190E-004	10	...........
	48	2.45	2.79631E-001	9.62968E-005	0.00000E+000	2.79750E-001	1.65823E-004	10	...........
	51	2.6	3.09492E-001	1.13832E-004	0.00000E+000	3.09750E-001	1.70025E-004	10	...........
	54	2.75	3.39579E-001	1.30207E-004	0.00000E+000	3.39750E-001	1.66757E-004	10	...........
	57	2.9	3.69615E-001	1.39638E-004	0.00000E+000	3.69750E-001	1.64823E-004	10	...........
	60	3.05	3.99491E-001	1.49724E-004	0.00000E+000	3.99750E-001	1.66323E-004	10	...........
	63	3.2	4.29436E-001	1.58630E-004	0.00000E+000	4.29750E-001	1.68491E-004	10	...........
	66	3.35	4.59498E-001	1.67208E-004	0.00000E+000	4.59750E-001	1.65523E-004	10	...........
	69	3.5	4.89591E-001	1.76987E-004	0.00000E+000	4.89750E-001	1.65223E-004	10	...........
	72	3.65	5.19427E-001	1.88153E-004	0.00000E+000	5.19750E-001	1.68457E-004	10	...........
	75	3.8	5.49402E-001	2.01070E-004	0.00000E+000	5.49750E-001	1.66957E-004	10	...........
	78	3.95	5.79413E-001	2.13197E-004	0.00000E+000	5.79750E-001	1.66390E-004	10	...........
	81	4.1	6.09541E-001	2.25851E-004	0.00000E+000	6.09750E-001	1.67624E-004	10	...........
	84	4.25	6.39297E-001	2.40512E-004	0.00000E+000	6.39750E-001	1.67457E-004	10	...........
	87	4.4	6.69297E-001	2.49886E-004	0.00000E+000	6.69750E-001	1.64189E-004	10	...........
	90	4.55	6.99289E-001	2.55342E-004	0.00000E+000	6.99750E-001	1.67024E-004	10	...........
	93	4.7	7.29232E-001	2.61681E-004	0.00000E+000	7.29750E-001	1.65123E-004	10	...........
	96	4.85	7.59081E-001	2.64716E-004	0.00000E+000	7.59750E-001	1.68858E-004	10	...........
	99	5	7.89240E-001	2.68707E-004	0.00000E+000	7.89750E-001	1.63989E-004	10	...........
	102	5.15	8.19242E-001	2.71240E-004	0.00000E+000	8.19750E-001	1.65823E-004	10	...........
	105	5.3	8.49169E-001	2.79289E-004	0.00000E+000	8.49750E-001	1.63923E-004	10	...........
	108	5.45	8.79144E-001	2.88282E-004	0.00000E+000	8.79750E-001	1.65657E-004	10	...........
	111	5.6	8.89324E-001	2.00305E-004	0.00000E+000	8.89750E-001	1.65657E-004	10	...........
	114	5.75	8.59322E-001	8.40429E-005	0.00000E+000	8.59750E-001	1.65323E-004	10	...........
	117	5.9	8.29291E-001	4.22594E-005	0.00000E+000	8.29750E-001	1.67624E-004	10	...........
	120	6.05	7.99251E-001	3.26445E-005	0.00000E+000	7.99750E-001	1.65990E-004	10	...........
[...]
	3143	157.2	-5.74363E-001	2.40347E-004	0.00000E+000	-5.75000E-001	1.59988E-004	10	...........
	3144	157.25	-5.64429E-001	2.37765E-004	0.00000E+000	-5.65000E-001	1.59688E-004	10	...........
	3145	157.3	-5.54482E-001	2.03863E-004	0.00000E+000	-5.55000E-001	1.61855E-004	10	...........
	3146	157.35	-5.44464E-001	1.60033E-004	0.00000E+000	-5.45000E-001	1.57254E-004	10	...........
	3147	157.4	-5.34363E-001	1.35539E-004	0.00000E+000	-5.35000E-001	1.56187E-004	10	...........
	3148	157.45	-5.24512E-001	1.16876E-004	0.00000E+000	-5.25000E-001	1.57521E-004	10	...........
	3149	157.5	-5.14529E-001	1.13712E-004	0.00000E+000	-5.15000E-001	1.61722E-004	10	...........
	3150	157.55	-5.04511E-001	1.13183E-004	0.00000E+000	-5.05000E-001	1.62489E-004	10	...........
	3151	157.6	-4.94375E-001	1.22188E-004	0.00000E+000	-4.95000E-001	1.63322E-004	10	...........
	3152	157.65	-4.84501E-001	1.25992E-004	0.00000E+000	-4.85000E-001	1.63589E-004	10	...........
	3153	157.7	-4.74559E-001	1.29968E-004	0.00000E+000	-4.75000E-001	1.59421E-004	10	...........
	3154	157.75	-4.64533E-001	1.30330E-004	0.00000E+000	-4.65000E-001	1.61955E-004	10	...........
	3155	157.8	-4.54419E-001	1.45212E-004	0.00000E+000	-4.55000E-001	1.60488E-004	10	...........
	3156	157.85	-4.44503E-001	1.61574E-004	0.00000E+000	-4.45000E-001	1.62556E-004	10	...........
	3157	157.9	-4.34560E-001	1.77788E-004	0.00000E+000	-4.35000E-001	1.63923E-004	10	...........
	3158	157.95	-4.24608E-001	1.62365E-004	0.00000E+000	-4.25000E-001	1.62189E-004	10	...........
	3159	158	-4.14372E-001	1.30652E-004	0.00000E+000	-4.15000E-001	1.59955E-004	10	...........
	3160	158.05	-4.04569E-001	9.00438E-005	0.00000E+000	-4.05000E-001	1.64723E-004	10	...........
	3161	158.1	-3.94569E-001	6.67832E-005	0.00000E+000	-3.95000E-001	1.63656E-004	10	...........
	3162	158.15	-3.84561E-001	5.09940E-005	0.00000E+000	-3.85000E-001	1.61389E-004	10	...........
	3163	158.2	-3.74561E-001	4.42348E-005	0.00000E+000	-3.75000E-001	1.61622E-004	10	...........
	3164	158.25	-3.64574E-001	3.88802E-005	0.00000E+000	-3.65000E-001	1.61989E-004	10	...........
	3165	158.3	-3.54584E-001	3.64533E-005	0.00000E+000	-3.55000E-001	1.65590E-004	10	...........
	3166	158.35	-3.44600E-001	3.23898E-005	0.00000E+000	-3.45000E-001	1.64656E-004	10	...........
	3167	158.4	-3.34483E-001	3.04717E-005	0.00000E+000	-3.35000E-001	1.58821E-004	10	...........
	3168	158.45	-3.24592E-001	2.74626E-005	0.00000E+000	-3.25000E-001	1.61155E-004	10	...........
	3169	158.5	-3.14603E-001	2.33251E-005	0.00000E+000	-3.15000E-001	1.56087E-004	10	...........
	3170	158.55	-3.04641E-001	2.34905E-005	0.00000E+000	-3.05000E-001	1.62155E-004	10	...........
	3171	158.6	-2.94662E-001	2.34131E-005	0.00000E+000	-2.95000E-001	1.59321E-004	10	...........
	3172	158.65	-2.84633E-001	2.28903E-005	0.00000E+000	-2.85000E-001	1.62222E-004	10	...........
	3173	158.7	-2.74658E-001	2.32437E-005	0.00000E+000	-2.75000E-001	1.59521E-004	10	...........
	3174	158.75	-2.64707E-001	2.37639E-005	0.00000E+000	-2.65000E-001	1.62989E-004	10	...........
	3175	158.8	-2.54594E-001	2.53105E-005	0.00000E+000	-2.55000E-001	1.62689E-004	10	...........
	3176	158.85	-2.44673E-001	2.64109E-005	0.00000E+000	-2.45000E-001	1.60722E-004	10	...........
	3177	158.9	-2.34647E-001	2.86144E-005	0.00000E+000	-2.35000E-001	1.63389E-004	10	...........
	3178	158.95	-2.24732E-001	2.96528E-005	0.00000E+000	-2.25000E-001	1.61655E-004	10	...........
	3179	159	-2.14665E-001	3.17629E-005	0.00000E+000	-2.15000E-001	1.60588E-004	10	...........
	3180	159.05	-2.04723E-001	3.38083E-005	0.00000E+000	-2.05000E-001	1.62956E-004	10	...........

File: CV_test_4.DTA
EXPLAIN
TAG	CV
TITLE	LABEL	CV	Test &Identifier
DATE	LABEL	2/22/2019	Date
TIME	LABEL	11:07:45	Time
NOTES	NOTES	2	&Notes...
	0.5 M H2SO4
	Pt-wire CE
PSTAT	PSTAT	REF600-16093	Potentiostat
VINIT	POTEN	0.00000E+000	T	Initial &E (V)
VLIMIT1	POTEN	1.00000E+000	F	Scan Limit &1 (V)
VLIMIT2	POTEN	-7.00000E-001	F	Scan Limit &2 (V)
VFINAL	POTEN	0.00000E+000	T	Final &E (V)
SCANRATE	QUANT	2.00000E+002	&Scan Rate (mV/s)
STEPSIZE	QUANT	1.00000E+001	St&ep Size (mV)
CYCLES	IQUANT	20	C&ycles (#)
IMODE	SELECTOR	1	I/E Range &Mode
IRANGE	QUANT	1.00000E+001	&Max Current (mA)
AREA	QUANT	1.00000E+000	Electrode &Area (cm^2)
ELECTRODETYPE	SELECTOR	0	Electrode Type
STRIPPING	TOGGLE	F	Used for Stripping
POLARITY	TOGGLE	F	Signal Polarity
CONDIT	TWOPARAM	F	1.50000E+001	0.00000E+000	Conditionin&g	Time(s)	E(V)
DELAY	TWOPARAM	T	5.00000E+000	0.00000E+000	Init. De&lay	Time(s)	Stab.(mV/s)
EQDELAY	QUANT	5.00000E+000	Equil. &Time (s)
IRCOMP	SELECTOR	0	IRCom&p
PFCOR	QUANT	0.00000E+000	PF Corr. (ohm)
SAMPLINGMODE	SELECTOR	2	Sampling &Mode
OCVCURVE	TABLE	20
	Pt	T	Vf	Vm	Ach	Over
	#	s	V vs. Ref.	V	V	bits
	0	0.25	-3.83284E-001	-3.83284E-001	5.03265E-005	...........
	1	0.5	-3.83280E-001	-3.83057E-001	5.60265E-005	...........
	2	0.75	-3.83253E-001	-3.82856E-001	5.88264E-005	...........
	3	1	-3.83178E-001	-3.82595E-001	4.70933E-005	...........
	4	1.25	-3.83040E-001	-3.82317E-001	4.69266E-005	...........
	5	1.5	-3.82846E-001	-3.82216E-001	5.22932E-005	...........
	6	1.75	-3.82626E-001	-3.82008E-001	5.20599E-005	...........
	7	2	-3.82408E-001	-3.81783E-001	4.84599E-005	...........
	8	2.25	-3.82205E-001	-3.81650E-001	5.33932E-005	...........
	9	2.5	-3.82011E-001	-3.81369E-001	5.71598E-005	...........
	10	2.75	-3.81817E-001	-3.81159E-001	4.93266E-005	...........
	11	3	-3.81611E-001	-3.80800E-001	4.82932E-005	...........
	12	3.25	-3.81385E-001	-3.80680E-001	5.16265E-005	...........
	13	3.5	-3.81145E-001	-3.80491E-001	6.39263E-005	...........
	14	3.75	-3.80910E-001	-3.80300E-001	4.95932E-005	...........
	15	4	-3.80696E-001	-3.80107E-001	5.57931E-005	...........
	16	4.25	-3.80500E-001	-3.79958E-001	5.18599E-005	...........
	17	4.5	-3.80314E-001	-3.79731E-001	5.48931E-005	...........
	18	4.75	-3.80131E-001	-3.79550E-001	4.74599E-005	...........
	19	5	-3.79944E-001	-3.79252E-001	5.15599E-005	...........
EOC	QUANT	-0.3799435	Open Circuit (V)
PSTATMODEL	IQUANT	4	Pstat Model
PSTATSECTION	LABEL	REF600-16093	Pstat Section
PSTATSERIALNO	LABEL	16093	Pstat Serial Number
CTRLMODE	IQUANT	1	Control Mode
IESTAB	IQUANT	2	I/E Stability
CASPEED	IQUANT	2	Control Amp Speed
CONVENTION	IQUANT	1	Current Convention
ICHRANGE	IQUANT	2	Ich Range
ICHRANGEMODE	TOGGLE	F	Ich Auto Range
ICHOFFSETENABLE	TOGGLE	F	Ich Offset Enable
ICHOFFSET	QUANT	0	Ich Offset (V)
ICHFILTER	IQUANT	2	Ich Filter
VCHRANGE	IQUANT	2	Vch Range
VCHRANGEMODE	TOGGLE	F	Vch Auto Range
VCHOFFSETENABLE	TOGGLE	F	Vch Offset Enable
VCHOFFSET	QUANT	0	Vch Offset (V)
VCHFILTER	IQUANT	2	Vch Filter
ACHRANGE	IQUANT	2	Ach Range
ACHOFFSETENABLE	TOGGLE	F	Ach Offset Enable
ACHOFFSET	QUANT	0	Ach Offset (V)
ACHFILTER	IQUANT	1	Ach Filter
IERANGELOWERLIMIT	IQUANT	1	I/E Range Lower Limit
IERANGEMODE	TOGGLE	F	I/E AutoRange
IERANGE	IQUANT	10	I/E Range
POSFEEDENABLE	TOGGLE	F	Positive Feedback IR Comp
POSFEEDRESISTANCE	QUANT	0	Positive Feedback Resistance (ohm)
ACHSELECT	IQUANT	0	Ach Select
CABLEID	IQUANT	14	Cable ID
DCCALDATE	LABEL	2/18/2019	DC Calibration Date
ACCALDATE	LABEL	2/18/2019	AC Calibration Date
THERMOSELECT	IQUANT	1	Thermo Select
FRAMEWORKVERSION	QUANT	6.33	Framework Version
INSTRUMENTVERSION	LABEL	3.50	Instrument Version
CURVE1	TABLE
	Pt	T	Vf	Im	Vu	Sig	Ach	IERange	Over
	#	s	V vs. Ref.	A	V	V	V	#	bits
	0	0.05	-3.79498E-001	-3.44950E-006	0.00000E+000	-3.79950E-001	8.48975E-005	10	...........
	3	0.2	-3.49577E-001	8.76703E-005	0.00000E+000	-3.49950E-001	9.25666E-005	10	...........
	6	0.35	-3.19584E-001	7.49556E-005	0.00000E+000	-3.19950E-001	8.86321E-005	10	...........
	9	0.5	-2.89528E-001	7.69230E-005	0.00000E+000	-2.89950E-001	8.89321E-005	10	...........
	12	0.65	-2.59620E-001	8.96543E-005	0.00000E+000	-2.59950E-001	8.59312E-005	10	...........
	15	0.8	-2.29693E-001	1.15085E-004	0.00000E+000	-2.29950E-001	8.68648E-005	10	...........
	18	0.95	-1.99658E-001	1.51349E-004	0.00000E+000	-1.99950E-001	9.36670E-005	10	...........
	21	1.1	-1.69610E-001	1.98942E-004	0.00000E+000	-1.69950E-001	8.82653E-005	10	...........
	24	1.25	-1.39732E-001	2.51783E-004	0.00000E+000	-1.39950E-001	9.56343E-005	10	...........
	27	1.4	-1.09754E-001	3.02534E-004	0.00000E+000	-1.09950E-001	9.46673E-005	10	...........
	30	1.55	-7.97213E-002	3.39348E-004	0.00000E+000	-7.99500E-002	1.04670E-004	10	...........
	33	1.7	-4.96150E-002	3.57960E-004	0.00000E+000	-4.99500E-002	9.68013E-005	10	...........
	36	1.85	-1.98050E-002	3.58143E-004	0.00000E+000	-1.99500E-002	1.04204E-004	10	...........
	39	2	1.01446E-002	3.51173E-004	0.00000E+000	1.00500E-002	9.23332E-005	10	...........
	42	2.15	4.01690E-002	3.47841E-004	0.00000E+000	4.00500E-002	1.02336E-004	10	...........
	45	2.3	7.02426E-002	3.60403E-004	0.00000E+000	7.00500E-002	9.51341E-005	10	...........
	48	2.45	1.00047E-001	3.93062E-004	0.00000E+000	1.00050E-001	9.92021E-005	10	...........
	51	2.6	1.30058E-001	4.49161E-004	0.00000E+000	1.30050E-001	9.33335E-005	10	...........
	54	2.75	1.60062E-001	5.24417E-004	0.00000E+000	1.60050E-001	9.28334E-005	10	...........
	57	2.9	1.89965E-001	6.25044E-004	0.00000E+000	1.90050E-001	8.73650E-005	10	...........
	60	3.05	2.19845E-001	7.46222E-004	0.00000E+000	2.20050E-001	9.49341E-005	10	...........
	63	3.2	2.49980E-001	8.94010E-004	0.00000E+000	2.50050E-001	8.71983E-005	10	...........
	66	3.35	2.80035E-001	1.05664E-003	0.00000E+000	2.80050E-001	9.16663E-005	10	...........
	69	3.5	3.09867E-001	1.22883E-003	0.00000E+000	3.10050E-001	9.89020E-005	10	...........
	72	3.65	3.39835E-001	1.38318E-003	0.00000E+000	3.40050E-001	9.19665E-005	10	...........
	75	3.8	3.69846E-001	1.51681E-003	0.00000E+000	3.70050E-001	9.57343E-005	10	...........
	78	3.95	4.00009E-001	1.61703E-003	0.00000E+000	4.00050E-001	8.34971E-005	10	...........
	81	4.1	4.29829E-001	1.68411E-003	0.00000E+000	4.30050E-001	9.36003E-005	10	...........
	84	4.25	4.59800E-001	1.71533E-003	0.00000E+000	4.60050E-001	9.42005E-005	10	...........
	87	4.4	4.89785E-001	1.73615E-003	0.00000E+000	4.90050E-001	9.85685E-005	10	...........
	90	4.55	5.19771E-001	1.75735E-003	0.00000E+000	5.20050E-001	8.84987E-005	10	...........
	93	4.7	5.49662E-001	1.78982E-003	0.00000E+000	5.50050E-001	9.81017E-005	10	...........
	96	4.85	5.79727E-001	1.82437E-003	0.00000E+000	5.80050E-001	8.87654E-005	10	...........
	99	5	6.09704E-001	1.86280E-003	0.00000E+000	6.10050E-001	9.76349E-005	10	...........
	102	5.15	6.39660E-001	1.89264E-003	0.00000E+000	6.40050E-001	8.57645E-005	10	...........
	105	5.3	6.69535E-001	1.91514E-003	0.00000E+000	6.70050E-001	9.59677E-005	10	...........
	108	5.45	6.99591E-001	1.92225E-003	0.00000E+000	7.00050E-001	8.80652E-005	10	...........
	111	5.6	7.29615E-001	1.92124E-003	0.00000E+000	7.30050E-001	9.14996E-005	10	...........
	114	5.75	7.59515E-001	1.91345E-003	0.00000E+000	7.60050E-001	9.07994E-005	10	...........
	117	5.9	7.89448E-001	1.91155E-003	0.00000E+000	7.90050E-001	9.02993E-005	10	...........
	120	6.05	8.19537E-001	1.92043E-003	0.00000E+000	8.20050E-001	9.17330E-005	10	...........
[...]
	6753	337.7	-5.49365E-001	-1.22538E-003	0.00000E+000	-5.50000E-001	1.00736E-004	10	...........
	6757	337.9	-5.89307E-001	-2.09782E-003	0.00000E+000	-5.90000E-001	9.52342E-005	10	...........
	6761	338.1	-6.29321E-001	-2.08887E-003	0.00000E+000	-6.30000E-001	9.87353E-005	10	...........
	6765	338.3	-6.69280E-001	-2.30070E-003	0.00000E+000	-6.70000E-001	9.58677E-005	10	...........
	6768	338.45	-6.99121E-001	-3.00622E-003	0.00000E+000	-7.00000E-001	9.03659E-005	10	...........
CURVE21	TABLE
	Pt	T	Vf	Im	Vu	Sig	Ach	IERange	Over
	#	s	V vs. Ref.	A	V	V	V	#	bits
	6769	338.5	-6.89333E-001	-9.25615E-004	0.00000E+000	-6.90000E-001	9.04993E-005	10	...........
	6770	338.55	-6.79382E-001	1.55400E-004	0.00000E+000	-6.80000E-001	8.70649E-005	10	...........
	6771	338.6	-6.69381E-001	7.83401E-004	0.00000E+000	-6.70000E-001	9.27334E-005	10	...........
	6772	338.65	-6.59274E-001	1.12787E-003	0.00000E+000	-6.60000E-001	8.71983E-005	10	...........
	6773	338.7	-6.49320E-001	1.29988E-003	0.00000E+000	-6.50000E-001	9.71348E-005	10	...........
	6774	338.75	-6.39359E-001	1.39030E-003	0.00000E+000	-6.40000E-001	8.97991E-005	10	...........
	6775	338.8	-6.29426E-001	1.44605E-003	0.00000E+000	-6.30000E-001	9.31668E-005	10	...........
	6776	338.85	-6.19177E-001	1.49480E-003	0.00000E+000	-6.20000E-001	8.28636E-005	10	...........
	6777	338.9	-6.09371E-001	1.54814E-003	0.00000E+000	-6.10000E-001	9.24333E-005	10	...........
	6778	338.95	-5.99365E-001	1.61874E-003	0.00000E+000	-6.00000E-001	8.94657E-005	10	...........
	6779	339	-5.89386E-001	1.70915E-003	0.00000E+000	-5.90000E-001	9.61011E-005	10	...........
	6780	339.05	-5.79415E-001	1.81495E-003	0.00000E+000	-5.80000E-001	8.80986E-005	10	...........
	6781	339.1	-5.69400E-001	1.91815E-003	0.00000E+000	-5.70000E-001	9.22999E-005	10	...........
	6782	339.15	-5.59412E-001	1.95585E-003	0.00000E+000	-5.60000E-001	9.11995E-005	10	...........
	6783	339.2	-5.49468E-001	1.84185E-003	0.00000E+000	-5.50000E-001	9.45006E-005	10	...........
	6784	339.25	-5.39345E-001	1.60956E-003	0.00000E+000	-5.40000E-001	8.85320E-005	10	...........
	6785	339.3	-5.29429E-001	1.38594E-003	0.00000E+000	-5.30000E-001	9.49674E-005	10	...........
	6786	339.35	-5.19405E-001	1.24180E-003	0.00000E+000	-5.20000E-001	8.82653E-005	10	...........
	6787	339.4	-5.09486E-001	1.17318E-003	0.00000E+000	-5.10000E-001	1.00069E-004	10	...........
	6788	339.45	-4.99501E-001	1.16256E-003	0.00000E+000	-5.00000E-001	8.73983E-005	10	...........
	6789	339.5	-4.89430E-001	1.18665E-003	0.00000E+000	-4.90000E-001	9.53008E-005	10	...........
	6790	339.55	-4.79481E-001	1.20766E-003	0.00000E+000	-4.80000E-001	9.04993E-005	10	...........
	6791	339.6	-4.69540E-001	1.20984E-003	0.00000E+000	-4.70000E-001	9.81684E-005	10	...........
	6792	339.65	-4.59402E-001	1.22378E-003	0.00000E+000	-4.60000E-001	9.42338E-005	10	...........
	6793	339.7	-4.49503E-001	1.28448E-003	0.00000E+000	-4.50000E-001	9.83018E-005	10	...........
	6794	339.75	-4.39453E-001	1.38098E-003	0.00000E+000	-4.40000E-001	8.84987E-005	10	...........
	6795	339.8	-4.29545E-001	1.45958E-003	0.00000E+000	-4.30000E-001	9.54342E-005	10	...........
	6796	339.85	-4.19473E-001	1.42960E-003	0.00000E+000	-4.20000E-001	8.59312E-005	10	...........
	6797	339.9	-4.09524E-001	1.23425E-003	0.00000E+000	-4.10000E-001	8.84987E-005	10	...........
	6798	339.95	-3.99573E-001	9.42328E-004	0.00000E+000	-4.00000E-001	8.23300E-005	10	...........
	6799	340	-3.89620E-001	7.04772E-004	0.00000E+000	-3.90000E-001	8.62646E-005	10	...........
	6800	340.05	-3.79581E-001	5.65740E-004	0.00000E+000	-3.80000E-001	8.57978E-005	10	...........