Folder: Julia/20191210

Note: 20191210/Calibration Results PC5-16093.txt
Calibration Values for REF600-16093  - S/N# 16093
12/10/2019  11:35:05

Ich Channel Offset [0]:  -0.0003336  (+/-0.003) - PASSED
Ich Channel Offset [1]:  -0.0002803  (+/-0.003) - PASSED
Ich Channel Offset [2]:  -0.0002828  (+/-0.003) - PASSED
Ich Channel Offset [3]:  -0.0003285  (+/-0.003) - PASSED
Ich Channel Offset [4]:  0  (+/-0.003) - PASSED
Ich Channel Offset [5]:  -0.0002862  (+/-0.003) - PASSED
Ich Channel Offset [6]:  -0.0002623  (+/-0.003) - PASSED
Ich Channel Offset [7]:  -0.0002668  (+/-0.003) - PASSED
Ich Channel Offset [8]:  -0.0003134  (+/-0.003) - PASSED
Ich Channel Offset [9]:  0  (+/-0.003) - PASSED
Ich Channel Offset [10]:  -0.0004549  (+/-0.003) - PASSED
Ich Channel Offset [11]:  -0.0004078  (+/-0.003) - PASSED
Ich Channel Offset [12]:  -0.0004094  (+/-0.003) - PASSED
Ich Channel Offset [13]:  -0.0004556  (+/-0.003) - PASSED
Ich Channel Offset [14]:  0  (+/-0.003) - PASSED
Vch Channel Offset [0]:  2.291793E-005  (+/-0.003) - PASSED
Vch Channel Offset [1]:  5.979894E-005  (+/-0.003) - PASSED
Vch Channel Offset [2]:  2.990119E-005  (+/-0.003) - PASSED
Vch Channel Offset [3]:  -1.076598E-005  (+/-0.003) - PASSED
Vch Channel Offset [4]:  0  (+/-0.003) - PASSED
Vch Channel Offset [5]:  9.328849E-005  (+/-0.003) - PASSED
Vch Channel Offset [6]:  0.0001008  (+/-0.003) - PASSED
Vch Channel Offset [7]:  6.997876E-005  (+/-0.003) - PASSED
Vch Channel Offset [8]:  4.252743E-005  (+/-0.003) - PASSED
Vch Channel Offset [9]:  0  (+/-0.003) - PASSED
Vch Channel Offset [10]:  -0.0002384  (+/-0.003) - PASSED
Vch Channel Offset [11]:  -0.0002246  (+/-0.003) - PASSED
Vch Channel Offset [12]:  -0.0002754  (+/-0.003) - PASSED
Vch Channel Offset [13]:  -0.0003312  (+/-0.003) - PASSED
Vch Channel Offset [14]:  0  (+/-0.003) - PASSED
Vch Channel Offset [15]:  -0.0002384  (+/-0.003) - PASSED
Vch Channel Offset [16]:  -0.0002246  (+/-0.003) - PASSED
Vch Channel Offset [17]:  -0.0002754  (+/-0.003) - PASSED
Vch Channel Offset [18]:  -0.0003312  (+/-0.003) - PASSED
Vch Channel Offset [19]:  0  (+/-0.003) - PASSED
Ach Channel Offset [0]:  1.201648E-006  (+/-0.003) - PASSED
Ach Channel Offset [1]:  6.537397E-005  (+/-0.003) - PASSED
Ach Channel Offset [2]:  -2.123987E-005  (+/-0.003) - PASSED
Ach Channel Offset [3]:  8.524761E-005  (+/-0.003) - PASSED
Ach Channel Offset [4]:  0  (+/-0.003) - PASSED
Ach Channel Offset [5]:  -1.102325E-005  (+/-0.003) - PASSED
Ach Channel Offset [6]:  3.012796E-005  (+/-0.003) - PASSED
Ach Channel Offset [7]:  -4.640346E-005  (+/-0.003) - PASSED
Ach Channel Offset [8]:  5.555824E-005  (+/-0.003) - PASSED
Ach Channel Offset [9]:  0  (+/-0.003) - PASSED
Ach Channel Offset [10]:  0.0004002  (+/-0.003) - PASSED
Ach Channel Offset [11]:  0.0004627  (+/-0.003) - PASSED
Ach Channel Offset [12]:  0.0003947  (+/-0.003) - PASSED
Ach Channel Offset [13]:  0.0004976  (+/-0.003) - PASSED
Ach Channel Offset [14]:  0  (+/-0.003) - PASSED
Esig Attenuation Offset [0]:  -0.0001098  (+/-0.003

File: CVTESTKRISTALL4BOX6_1.DTA
EXPLAIN
TAG	CV
TITLE	LABEL	CV	Test &Identifier
DATE	LABEL	12/10/2019	Date
TIME	LABEL	10:55:07	Time
NOTES	NOTES	1	&Notes...

PSTAT	PSTAT	REF600-16093	Potentiostat
VINIT	POTEN	0.00000E+000	T	Initial &E (V)
VLIMIT1	POTEN	8.00000E-001	F	Scan Limit &1 (V)
VLIMIT2	POTEN	-5.00000E-001	F	Scan Limit &2 (V)
VFINAL	POTEN	0.00000E+000	T	Final &E (V)
SCANRATE	QUANT	4.99999E+001	&Scan Rate (mV/s)
STEPSIZE	QUANT	1.00000E+000	St&ep Size (mV)
CYCLES	IQUANT	5	C&ycles (#)
IMODE	SELECTOR	1	I/E Range &Mode
IRANGE	QUANT	1.50000E+001	&Max Current (mA)
AREA	QUANT	1.00000E+000	Electrode &Area (cm^2)
ELECTRODETYPE	SELECTOR	0	Electrode Type
STRIPPING	TOGGLE	F	Used for Stripping
POLARITY	TOGGLE	F	Signal Polarity
CONDIT	TWOPARAM	F	1.50000E+001	0.00000E+000	Conditionin&g	Time(s)	E(V)
DELAY	TWOPARAM	T	5.00000E+000	0.00000E+000	Init. De&lay	Time(s)	Stab.(mV/s)
EQDELAY	QUANT	3.00000E+000	Equil. &Time (s)
IRCOMP	SELECTOR	0	IRCom&p
PFCOR	QUANT	0.00000E+000	PF Corr. (ohm)
SAMPLINGMODE	SELECTOR	2	Sampling &Mode
OCVCURVE	TABLE	20
	Pt	T	Vf	Vm	Ach	Over
	#	s	V vs. Ref.	V	V	bits
	0	0.25	-5.83633E-006	-5.83633E-006	8.70585E-005	...........
	1	0.5	-5.87659E-006	-7.94380E-006	8.21002E-005	...........
	2	0.75	-6.06890E-006	-7.06672E-006	7.93919E-005	...........
	3	1	-6.40378E-006	-4.83217E-006	8.09752E-005	...........
	4	1.25	-6.59939E-006	-6.14299E-006	7.74336E-005	...........
	5	1.5	-6.44355E-006	-5.05926E-006	8.07669E-005	...........
	6	1.75	-6.08103E-006	-5.89967E-006	7.95586E-005	...........
	7	2	-5.76732E-006	-5.47634E-006	8.14752E-005	...........
	8	2.25	-5.59313E-006	-4.88634E-006	8.46002E-005	...........
	9	2.5	-5.46855E-006	-4.31760E-006	8.31419E-005	...........
	10	2.75	-5.29310E-006	-6.11507E-006	7.88503E-005	...........
	11	3	-5.11971E-006	-3.99052E-006	8.18502E-005	...........
	12	3.25	-4.99988E-006	-4.07219E-006	7.95586E-005	...........
	13	3.5	-4.80744E-006	-2.83220E-006	8.25585E-005	...........
	14	3.75	-4.45818E-006	-5.04342E-006	8.36419E-005	...........
	15	4	-4.10134E-006	-2.88845E-006	8.44752E-005	...........
	16	4.25	-3.92150E-006	-5.67883E-006	8.45585E-005	...........
	17	4.5	-3.99820E-006	-5.89758E-006	9.01418E-005	...........
	18	4.75	-4.34676E-006	-4.90509E-006	8.17252E-005	...........
	19	5	-4.79456E-006	-4.12052E-006	8.61001E-005	...........
EOC	QUANT	-4.794556E-006	Open Circuit (V)
PSTATMODEL	IQUANT	4	Pstat Model
PSTATSECTION	LABEL	REF600-16093	Pstat Section
PSTATSERIALNO	LABEL	16093	Pstat Serial Number
CTRLMODE	IQUANT	1	Control Mode
IESTAB	IQUANT	2	I/E Stability
CASPEED	IQUANT	2	Control Amp Speed
CONVENTION	IQUANT	1	Current Convention
ICHRANGE	IQUANT	2	Ich Range
ICHRANGEMODE	TOGGLE	F	Ich Auto Range
ICHOFFSETENABLE	TOGGLE	F	Ich Offset Enable
ICHOFFSET	QUANT	0	Ich Offset (V)
ICHFILTER	IQUANT	2	Ich Filter
VCHRANGE	IQUANT	2	Vch Range
VCHRANGEMODE	TOGGLE	F	Vch Auto Range
VCHOFFSETENABLE	TOGGLE	F	Vch Offset Enable
VCHOFFSET	QUANT	0	Vch Offset (V)
VCHFILTER	IQUANT	2	Vch Filter
ACHRANGE	IQUANT	2	Ach Range
ACHOFFSETENABLE	TOGGLE	F	Ach Offset Enable
ACHOFFSET	QUANT	0	Ach Offset (V)
ACHFILTER	IQUANT	1	Ach Filter
IERANGELOWERLIMIT	IQUANT	1	I/E Range Lower Limit
IERANGEMODE	TOGGLE	F	I/E AutoRange
IERANGE	IQUANT	10	I/E Range
POSFEEDENABLE	TOGGLE	F	Positive Feedback IR Comp
POSFEEDRESISTANCE	QUANT	0	Positive Feedback Resistance (ohm)
ACHSELECT	IQUANT	0	Ach Select
CABLEID	IQUANT	14	Cable ID
DCCALDATE	LABEL	11/5/2019	DC Calibration Date
ACCALDATE	LABEL		AC Calibration Date
THERMOSELECT	IQUANT	1	Thermo Select
FRAMEWORKVERSION	QUANT	6.12	Framework Version
INSTRUMENTVERSION	LABEL	3.11	Instrument Version
CURVE1	TABLE
	Pt	T	Vf	Im	Vu	Sig	Ach	IERange	Over
	#	s	V vs. Ref.	A	V	V	V	#	bits
	0	0.02	-1.62907E-004	-4.38458E-006	0.00000E+000	1.49012E-008	3.18523E-005	10	...........
	20	0.42	1.97852E-002	2.33461E-006	0.00000E+000	2.00000E-002	4.84492E-005	10	...........
	40	0.82	3.97728E-002	9.25897E-006	0.00000E+000	4.00000E-002	3.89414E-005	10	...........
	60	1.22	5.97740E-002	1.52742E-005	0.00000E+000	6.00000E-002	4.16936E-005	10	...........
	80	1.62	7.97352E-002	2.11360E-005	0.00000E+000	8.00000E-002	5.14516E-005	10	...........
	100	2.02	9.97491E-002	2.76283E-005	0.00000E+000	1.00000E-001	4.17770E-005	10	...........
	120	2.42	1.19698E-001	3.39154E-005	0.00000E+000	1.20000E-001	4.99504E-005	10	...........
	140	2.82	1.39702E-001	4.08415E-005	0.00000E+000	1.40000E-001	4.36953E-005	10	...........
	160	3.22	1.59660E-001	4.69067E-005	0.00000E+000	1.60000E-001	4.56969E-005	10	...........
	180	3.62	1.79626E-001	5.32489E-005	0.00000E+000	1.80000E-001	4.92832E-005	10	...........
	200	4.02	1.99593E-001	5.94393E-005	0.00000E+000	2.00000E-001	5.12848E-005	10	...........
	220	4.42	2.19612E-001	6.57398E-005	0.00000E+000	2.20000E-001	5.02840E-005	10	...........
	240	4.82	2.39575E-001	7.23522E-005	0.00000E+000	2.40000E-001	4.16102E-005	10	...........
	260	5.22	2.59584E-001	7.76986E-005	0.00000E+000	2.60000E-001	5.81238E-005	10	...........
	280	5.62	2.79465E-001	8.44661E-005	0.00000E+000	2.80000E-001	3.97754E-005	10	...........
	300	6.02	2.99577E-001	8.99375E-005	0.00000E+000	3.00000E-001	5.01172E-005	10	...........
	320	6.42	3.19471E-001	9.68903E-005	0.00000E+000	3.20000E-001	3.89414E-005	10	...........
	340	6.82	3.39569E-001	1.02512E-004	0.00000E+000	3.40000E-001	4.55301E-005	10	...........
	360	7.22	3.59401E-001	1.08507E-004	0.00000E+000	3.60000E-001	3.76904E-005	10	...........
	380	7.62	3.79572E-001	1.14477E-004	0.00000E+000	3.80000E-001	4.23609E-005	10	...........
	400	8.02	3.99377E-001	1.21612E-004	0.00000E+000	4.00000E-001	3.81074E-005	10	...........
	420	8.42	4.19555E-001	1.28193E-004	0.00000E+000	4.20000E-001	3.85244E-005	10	...........
	440	8.82	4.39369E-001	1.34073E-004	0.00000E+000	4.40000E-001	4.44459E-005	10	...........
	460	9.22	4.59553E-001	1.39923E-004	0.00000E+000	4.60000E-001	3.29365E-005	10	...........
	480	9.62	4.79360E-001	1.46116E-004	0.00000E+000	4.80000E-001	3.58555E-005	10	...........
	500	10.02	4.99402E-001	1.52947E-004	0.00000E+000	5.00000E-001	4.42791E-005	10	...........
	520	10.42	5.19337E-001	1.59078E-004	0.00000E+000	5.20000E-001	3.76904E-005	10	...........
	540	10.82	5.39488E-001	1.65161E-004	0.00000E+000	5.40000E-001	3.57721E-005	10	...........
	560	11.22	5.59298E-001	1.70418E-004	0.00000E+000	5.60000E-001	3.86912E-005	10	...........
	580	11.62	5.79388E-001	1.77339E-004	0.00000E+000	5.80000E-001	3.77738E-005	10	...........
	600	12.02	5.99287E-001	1.84031E-004	0.00000E+000	6.00000E-001	4.40289E-005	10	...........
	620	12.42	6.19258E-001	1.89157E-004	0.00000E+000	6.20000E-001	4.11098E-005	10	...........
	640	12.82	6.39195E-001	1.95563E-004	0.00000E+000	6.40000E-001	4.39455E-005	10	...........
	660	13.22	6.59319E-001	2.02140E-004	0.00000E+000	6.60000E-001	4.05260E-005	10	...........
	680	13.62	6.79179E-001	2.08949E-004	0.00000E+000	6.80000E-001	3.42709E-005	10	...........
	700	14.02	6.99176E-001	2.15250E-004	0.00000E+000	7.00000E-001	3.26863E-005	10	...........
	720	14.42	7.19166E-001	2.21102E-004	0.00000E+000	7.20000E-001	3.88580E-005	10	...........
	740	14.82	7.39162E-001	2.26843E-004	0.00000E+000	7.40000E-001	3.74402E-005	10	...........
	760	15.22	7.59159E-001	2.34075E-004	0.00000E+000	7.60000E-001	3.33535E-005	10	...........
	780	15.62	7.79097E-001	2.40210E-004	0.00000E+000	7.80000E-001	4.89496E-005	10	...........
	800	16.02	7.99092E-001	2.46002E-004	0.00000E+000	8.00000E-001	3.66062E-005	10	...........
	820	16.42	7.79109E-001	2.40489E-004	0.00000E+000	7.80000E-001	4.65309E-005	10	...........
	840	16.82	7.59179E-001	2.34095E-004	0.00000E+000	7.60000E-001	3.46879E-005	10	...........
	860	17.22	7.39169E-001	2.26780E-004	0.00000E+000	7.40000E-001	4.21941E-005	10	...........
	880	17.62	7.19175E-001	2.20831E-004	0.00000E+000	7.20000E-001	3.63559E-005	10	...........
	900	18.02	6.99189E-001	2.15333E-004	0.00000E+000	7.00000E-001	4.21107E-005	10	...........
	920	18.42	6.79206E-001	2.08269E-004	0.00000E+000	6.80000E-001	3.74402E-005	10	...........
	940	18.82	6.59331E-001	2.02080E-004	0.00000E+000	6.60000E-001	3.89414E-005	10	...........
	960	19.22	6.39215E-001	1.95162E-004	0.00000E+000	6.40000E-001	4.70313E-005	10	...........
	980	19.62	6.19264E-001	1.88628E-004	0.00000E+000	6.20000E-001	3.74402E-005	10	...........
	1000	20.02	5.99291E-001	1.83326E-004	0.00000E+000	6.00000E-001	3.98588E-005	10	...........
	1020	20.42	5.79385E-001	1.77255E-004	0.00000E+000	5.80000E-001	4.65309E-005	10	...........
	1040	20.82	5.59315E-001	1.70523E-004	0.00000E+000	5.60000E-001	3.93584E-005	10	...........
	1060	21.22	5.39485E-001	1.64236E-004	0.00000E+000	5.40000E-001	4.61973E-005	10	...........
	1080	21.62	5.19354E-001	1.58127E-004	0.00000E+000	5.20000E-001	4.06094E-005	10	...........
	1100	22.02	4.99406E-001	1.52655E-004	0.00000E+000	5.00000E-001	4.63641E-005	10	...........
	1120	22.42	4.79377E-001	1.45589E-004	0.00000E+000	4.80000E-001	3.91916E-005	10	...........
	1140	22.82	4.59573E-001	1.38637E-004	0.00000E+000	4.60000E-001	4.39455E-005	10	...........
	1160	23.22	4.39388E-001	1.33225E-004	0.00000E+000	4.40000E-001	4.51965E-005	10	...........
	1180	23.62	4.19569E-001	1.27048E-004	0.00000E+000	4.20000E-001	4.51131E-005	10	...........
	1200	24.02	3.99395E-001	1.21287E-004	0.00000E+000	4.00000E-001	4.51131E-005	10	...........
	1220	24.42	3.79592E-001	1.14339E-004	0.00000E+000	3.80000E-001	4.45293E-005	10	...........
	1240	24.82	3.59426E-001	1.08524E-004	0.00000E+000	3.60000E-001	4.90330E-005	10	...........
	1260	25.22	3.39591E-001	1.02820E-004	0.00000E+000	3.40000E-001	4.55301E-005	10	...........
	1280	25.62	3.19488E-001	9.64649E-005	0.00000E+000	3.20000E-001	4.27779E-005	10	...........
	1300	26.02	2.99600E-001	8.96356E-005	0.00000E+000	3.00000E-001	5.25359E-005	10	...........
	1320	26.42	2.79473E-001	8.27680E-005	0.00000E+000	2.80000E-001	5.56217E-005	10	...........
	1340	26.82	2.59601E-001	7.68145E-005	0.00000E+000	2.60000E-001	5.01172E-005	10	...........
	1360	27.22	2.39595E-001	7.08109E-005	0.00000E+000	2.40000E-001	4.15269E-005	10	...........
	1380	27.62	2.19617E-001	6.48240E-005	0.00000E+000	2.20000E-001	5.32865E-005	10	...........
	1400	28.02	1.99597E-001	5.84134E-005	0.00000E+000	2.00000E-001	4.39455E-005	10	...........
	1420	28.42	1.79644E-001	5.22097E-005	0.00000E+000	1.80000E-001	4.04426E-005	10	...........
	1440	28.82	1.59672E-001	4.64046E-005	0.00000E+000	1.60000E-001	4.37787E-005	10	...........
	1460	29.22	1.39706E-001	4.06730E-005	0.00000E+000	1.40000E-001	4.67811E-005	10	...........
	1480	29.62	1.19702E-001	3.36285E-005	0.00000E+000	1.20000E-001	4.84492E-005	10	...........
	1500	30.02	9.97556E-002	2.73647E-005	0.00000E+000	1.00000E-001	4.90330E-005	10	...........
	1520	30.42	7.97543E-002	2.08441E-005	0.00000E+000	8.00000E-002	4.66143E-005	10	...........
	1540	30.82	5.97885E-002	1.46770E-005	0.00000E+000	6.00000E-002	4.76152E-005	10	...........
	1560	31.22	3.97986E-002	9.16722E-006	0.00000E+000	4.00000E-002	4.07762E-005	10	...........
	1580	31.62	1.98003E-002	2.59817E-006	0.00000E+000	2.00000E-002	5.41205E-005	10	...........
	1600	32.02	-1.67411E-004	-3.59055E-006	0.00000E+000	1.49012E-008	4.29447E-005	10	...........
	1620	32.42	-2.01326E-002	-9.53239E-006	0.00000E+000	-2.00000E-002	5.20354E-005	10	...........
	1640	32.82	-4.01243E-002	-1.64768E-005	0.00000E+000	-4.00000E-002	4.46961E-005	10	...........
	1660	33.22	-6.00430E-002	-2.23235E-005	0.00000E+000	-6.00000E-002	3.58555E-005	10	...........
	1680	33.62	-8.01094E-002	-2.89193E-005	0.00000E+000	-8.00000E-002	3.95252E-005	10	...........
	1700	34.02	-1.00086E-001	-3.53282E-005	0.00000E+000	-1.00000E-001	4.43625E-005	10	...........
	1720	34.42	-1.20091E-001	-4.15369E-005	0.00000E+000	-1.20000E-001	3.44377E-005	10	...........
	1740	34.82	-1.40077E-001	-4.77206E-005	0.00000E+000	-1.40000E-001	4.41123E-005	10	...........
	1760	35.22	-1.59960E-001	-5.40862E-005	0.00000E+000	-1.60000E-001	3.88580E-005	10	...........
	1780	35.62	-1.79975E-001	-6.03733E-005	0.00000E+000	-1.80000E-001	3.47713E-005	10	...........
	1800	36.02	-2.00035E-001	-6.65987E-005	0.00000E+000	-2.00000E-001	3.16021E-005	10	...........
	1820	36.42	-2.19980E-001	-7.23504E-005	0.00000E+000	-2.20000E-001	4.36119E-005	10	...........
	1840	36.82	-2.39920E-001	-7.91847E-005	0.00000E+000	-2.40000E-001	3.83576E-005	10	...........
	1860	37.22	-2.59890E-001	-8.57037E-005	0.00000E+000	-2.60000E-001	3.77738E-005	10	...........
	1880	37.62	-2.79785E-001	-9.18591E-005	0.00000E+000	-2.80000E-001	4.71148E-005	10	...........
	1900	38.02	-2.99911E-001	-9.88735E-005	0.00000E+000	-3.00000E-001	4.06094E-005	10	...........
	1920	38.42	-3.19899E-001	-1.04051E-004	0.00000E+000	-3.20000E-001	4.05260E-005	10	...........
	1940	38.82	-3.39829E-001	-1.09918E-004	0.00000E+000	-3.40000E-001	3.88580E-005	10	...........
	1960	39.22	-3.59706E-001	-1.16382E-004	0.00000E+000	-3.60000E-001	4.27779E-005	10	...........
	1980	39.62	-3.79815E-001	-1.22434E-004	0.00000E+000	-3.80000E-001	4.69479E-005	10	...........
	2000	40.02	-3.99755E-001	-1.28294E-004	0.00000E+000	-4.00000E-001	4.86994E-005	10	...........
	2020	40.42	-4.19837E-001	-1.34660E-004	0.00000E+000	-4.20000E-001	5.01172E-005	10	...........
	2040	40.82	-4.39605E-001	-1.40536E-004	0.00000E+000	-4.40000E-001	4.05260E-005	10	...........
	2060	41.22	-4.59775E-001	-1.47015E-004	0.00000E+000	-4.60000E-001	4.50297E-005	10	...........
	2080	41.62	-4.79618E-001	-1.53341E-004	0.00000E+000	-4.80000E-001	4.44459E-005	10	...........
	2100	42.02	-4.99752E-001	-1.59695E-004	0.00000E+000	-5.00000E-001	4.67811E-005	10	...........
CURVE2	TABLE
	Pt	T	Vf	Im	Vu	Sig	Ach	IERange	Over
	#	s	V vs. Ref.	A	V	V	V	#	bits
	2101	42.04	-4.98761E-001	-1.59366E-004	0.00000E+000	-4.99000E-001	4.52799E-005	10	...........
	2106	42.14	-4.93738E-001	-1.58572E-004	0.00000E+000	-4.94000E-001	4.83658E-005	10	...........
	2111	42.24	-4.88718E-001	-1.56587E-004	0.00000E+000	-4.89000E-001	4.86160E-005	10	...........
	2116	42.34	-4.83766E-001	-1.55286E-004	0.00000E+000	-4.84000E-001	4.16936E-005	10	...........
	2121	42.44	-4.78760E-001	-1.53126E-004	0.00000E+000	-4.79000E-001	4.85326E-005	10	...........
	2126	42.54	-4.73788E-001	-1.51413E-004	0.00000E+000	-4.74000E-001	4.42791E-005	10	...........
	2131	42.64	-4.68715E-001	-1.50338E-004	0.00000E+000	-4.69000E-001	4.03592E-005	10	...........
	2136	42.74	-4.63623E-001	-1.48363E-004	0.00000E+000	-4.64000E-001	3.99422E-005	10	...........
	2141	42.84	-4.58741E-001	-1.47085E-004	0.00000E+000	-4.59000E-001	4.68645E-005	10	...........
	2146	42.94	-4.53735E-001	-1.45512E-004	0.00000E+000	-4.54000E-001	4.76986E-005	10	...........
	2151	43.04	-4.48774E-001	-1.44041E-004	0.00000E+000	-4.49000E-001	3.96086E-005	10	...........
	2156	43.14	-4.43810E-001	-1.42126E-004	0.00000E+000	-4.44000E-001	4.14434E-005	10	...........
	2161	43.24	-4.38791E-001	-1.40793E-004	0.00000E+000	-4.39000E-001	4.66143E-005	10	...........
	2166	43.34	-4.33825E-001	-1.39194E-004	0.00000E+000	-4.34000E-001	5.46209E-005	10	...........
	2171	43.44	-4.28808E-001	-1.37737E-004	0.00000E+000	-4.29000E-001	4.92832E-005	10	...........
	2176	43.54	-4.23819E-001	-1.35951E-004	0.00000E+000	-4.24000E-001	4.61973E-005	10	...........
	2181	43.64	-4.18803E-001	-1.34393E-004	0.00000E+000	-4.19000E-001	4.44459E-005	10	...........
	2186	43.74	-4.13780E-001	-1.32775E-004	0.00000E+000	-4.14000E-001	4.80322E-005	10	...........
	2191	43.84	-4.08829E-001	-1.31058E-004	0.00000E+000	-4.09000E-001	4.91164E-005	10	...........
	2196	43.94	-4.03852E-001	-1.29707E-004	0.00000E+000	-4.04000E-001	4.85326E-005	10	...........
	2201	44.04	-3.98876E-001	-1.28156E-004	0.00000E+000	-3.99000E-001	5.10346E-005	10	...........
	2206	44.14	-3.93873E-001	-1.26463E-004	0.00000E+000	-3.94000E-001	5.17852E-005	10	...........
	2211	44.24	-3.88598E-001	-1.25100E-004	0.00000E+000	-3.89000E-001	5.52047E-005	10	...........
	2216	44.34	-3.83627E-001	-1.23563E-004	0.00000E+000	-3.84000E-001	4.81156E-005	10	...........
	2221	44.44	-3.78808E-001	-1.21825E-004	0.00000E+000	-3.79000E-001	4.36119E-005	10	...........
	2226	44.54	-3.73846E-001	-1.20097E-004	0.00000E+000	-3.74000E-001	6.07092E-005	10	...........
	2231	44.64	-3.68839E-001	-1.18899E-004	0.00000E+000	-3.69000E-001	3.88580E-005	10	...........
	2236	44.74	-3.63843E-001	-1.17596E-004	0.00000E+000	-3.64000E-001	3.55219E-005	10	...........
	2241	44.84	-3.58870E-001	-1.16397E-004	0.00000E+000	-3.59000E-001	4.04426E-005	10	...........
	2246	44.94	-3.53855E-001	-1.14817E-004	0.00000E+000	-3.54000E-001	4.81990E-005	10	...........
	2251	45.04	-3.48870E-001	-1.12776E-004	0.00000E+000	-3.49000E-001	3.48547E-005	10	...........
	2256	45.14	-3.43686E-001	-1.11111E-004	0.00000E+000	-3.44000E-001	4.32783E-005	10	...........
	2261	45.24	-3.38814E-001	-1.10157E-004	0.00000E+000	-3.39000E-001	3.96920E-005	10	...........
	2266	45.34	-3.33849E-001	-1.08218E-004	0.00000E+000	-3.34000E-001	4.72816E-005	10	...........
	2271	45.44	-3.28885E-001	-1.06795E-004	0.00000E+000	-3.29000E-001	4.27779E-005	10	...........
	2276	45.54	-3.23912E-001	-1.05072E-004	0.00000E+000	-3.24000E-001	4.49463E-005	10	...........
	2281	45.64	-3.19024E-001	-1.03172E-004	0.00000E+000	-3.19000E-001	4.46127E-005	10	...........
	2286	45.74	-3.13943E-001	-1.01943E-004	0.00000E+000	-3.14000E-001	4.91998E-005	10	...........
	2291	45.84	-3.08921E-001	-1.00580E-004	0.00000E+000	-3.09000E-001	3.76070E-005	10	...........
	2296	45.94	-3.03858E-001	-9.85199E-005	0.00000E+000	-3.04000E-001	3.96086E-005	10	...........
	2301	46.04	-2.98888E-001	-9.69869E-005	0.00000E+000	-2.99000E-001	4.27779E-005	10	...........
	2306	46.14	-2.93939E-001	-9.50852E-005	0.00000E+000	-2.94000E-001	3.99422E-005	10	...........
	2311	46.24	-2.88929E-001	-9.40176E-005	0.00000E+000	-2.89000E-001	3.97754E-005	10	...........
	2316	46.34	-2.83894E-001	-9.27232E-005	0.00000E+000	-2.84000E-001	4.04426E-005	10	...........
	2321	46.44	-2.78962E-001	-9.08515E-005	0.00000E+000	-2.79000E-001	3.17689E-005	10	...........
	2326	46.54	-2.73959E-001	-8.94153E-005	0.00000E+000	-2.74000E-001	3.49381E-005	10	...........
	2331	46.64	-2.68979E-001	-8.72717E-005	0.00000E+000	-2.69000E-001	3.89414E-005	10	...........
	2336	46.74	-2.63877E-001	-8.61674E-005	0.00000E+000	-2.64000E-001	3.74402E-005	10	...........
	2341	46.84	-2.58825E-001	-8.46578E-005	0.00000E+000	-2.59000E-001	4.55301E-005	10	...........
	2346	46.94	-2.53930E-001	-8.29046E-005	0.00000E+000	-2.54000E-001	3.27697E-005	10	...........
	2351	47.04	-2.48928E-001	-8.09512E-005	0.00000E+000	-2.49000E-001	4.31115E-005	10	...........
	2356	47.14	-2.43984E-001	-7.93332E-005	0.00000E+000	-2.44000E-001	3.37705E-005	10	...........
	2361	47.24	-2.39017E-001	-7.82639E-005	0.00000E+000	-2.39000E-001	3.93584E-005	10	...........
	2366	47.34	-2.33994E-001	-7.68343E-005	0.00000E+000	-2.34000E-001	4.16102E-005	10	...........
	2371	47.44	-2.29028E-001	-7.53530E-005	0.00000E+000	-2.29000E-001	4.32783E-005	10	...........
	2376	47.54	-2.24005E-001	-7.39952E-005	0.00000E+000	-2.24000E-001	4.27779E-005	10	...........
	2381	47.64	-2.19017E-001	-7.18583E-005	0.00000E+000	-2.19000E-001	3.79406E-005	10	...........
	2386	47.74	-2.14017E-001	-7.09642E-005	0.00000E+000	-2.14000E-001	3.21025E-005	10	...........
	2391	47.84	-2.08977E-001	-6.98666E-005	0.00000E+000	-2.09000E-001	3.39373E-005	10	...........
	2396	47.94	-2.04039E-001	-6.78732E-005	0.00000E+000	-2.04000E-001	3.95252E-005	10	...........
	2401	48.04	-1.99051E-001	-6.63485E-005	0.00000E+000	-1.99000E-001	4.13600E-005	10	...........
	2406	48.14	-1.94068E-001	-6.42534E-005	0.00000E+000	-1.94000E-001	3.88580E-005	10	...........
	2411	48.24	-1.89072E-001	-6.29289E-005	0.00000E+000	-1.89000E-001	4.54467E-005	10	...........
	2416	48.34	-1.83952E-001	-6.16027E-005	0.00000E+000	-1.84000E-001	4.05260E-005	10	...........
	2421	48.44	-1.78847E-001	-6.01665E-005	0.00000E+000	-1.79000E-001	4.94500E-005	10	...........
	2426	48.54	-1.74003E-001	-5.83115E-005	0.00000E+000	-1.74000E-001	4.26111E-005	10	...........
	2431	48.64	-1.69031E-001	-5.66634E-005	0.00000E+000	-1.69000E-001	4.07762E-005	10	...........
	2436	48.74	-1.64040E-001	-5.49920E-005	0.00000E+000	-1.64000E-001	3.14353E-005	10	...........
	2441	48.84	-1.59034E-001	-5.35991E-005	0.00000E+000	-1.59000E-001	4.26945E-005	10	...........
	2446	48.94	-1.54071E-001	-5.21528E-005	0.00000E+000	-1.54000E-001	4.50297E-005	10	...........
	2451	49.04	-1.49064E-001	-5.09851E-005	0.00000E+000	-1.49000E-001	4.37787E-005	10	...........
	2456	49.14	-1.44068E-001	-4.92336E-005	0.00000E+000	-1.44000E-001	3.91916E-005	10	...........
	2461	49.24	-1.38916E-001	-4.73854E-005	0.00000E+000	-1.39000E-001	4.55301E-005	10	...........
	2466	49.34	-1.34020E-001	-4.62510E-005	0.00000E+000	-1.34000E-001	3.57721E-005	10	...........
	2471	49.44	-1.29049E-001	-4.47180E-005	0.00000E+000	-1.29000E-001	4.28613E-005	10	...........
	2476	49.54	-1.24079E-001	-4.29932E-005	0.00000E+000	-1.24000E-001	3.46045E-005	10	...........
	2481	49.64	-1.19111E-001	-4.10832E-005	0.00000E+000	-1.19000E-001	3.73568E-005	10	...........
	2486	49.74	-1.14222E-001	-3.95368E-005	0.00000E+000	-1.14000E-001	3.97754E-005	10	...........
	2491	49.84	-1.09133E-001	-3.82874E-005	0.00000E+000	-1.09000E-001	4.30281E-005	10	...........
	2496	49.94	-1.04128E-001	-3.71064E-005	0.00000E+000	-1.04000E-001	2.56805E-005	10	...........
	2501	50.04	-9.90541E-002	-3.51597E-005	0.00000E+000	-9.90000E-002	3.88580E-005	10	...........
	2506	50.14	-9.40909E-002	-3.36267E-005	0.00000E+000	-9.40000E-002	4.85326E-005	10	...........
	2511	50.24	-8.91335E-002	-3.21271E-005	0.00000E+000	-8.90000E-002	4.11932E-005	10	...........
	2516	50.34	-8.60136E-002	-3.09594E-005	0.00000E+000	-8.60000E-002	4.10264E-005	10	...........
	2521	50.44	-9.10878E-002	-3.25758E-005	0.00000E+000	-9.10000E-002	3.26863E-005	10	...........
	2526	50.54	-9.61117E-002	-3.43090E-005	0.00000E+000	-9.60000E-002	3.97754E-005	10	...........
	2531	50.64	-1.01134E-001	-3.57469E-005	0.00000E+000	-1.01000E-001	4.47795E-005	10	...........
	2536	50.74	-1.06142E-001	-3.73349E-005	0.00000E+000	-1.06000E-001	3.71900E-005	10	...........
	2541	50.84	-1.03087E-001	-3.61739E-005	0.00000E+000	-1.03000E-001	4.63641E-005	10	...........
	2546	50.94	-9.81637E-002	-3.46960E-005	0.00000E+000	-9.80000E-002	4.42791E-005	10	...........
	2551	51.04	-9.31379E-002	-3.33531E-005	0.00000E+000	-9.30000E-002	4.95334E-005	10	...........