Folder: Julia/20191202

File: CVTESTKRISTALL5BOX4.DTA
EXPLAIN
TAG	CV
TITLE	LABEL	CV	Test &Identifier
DATE	LABEL	12/2/2019	Date
TIME	LABEL	9:40:36	Time
NOTES	NOTES	1	&Notes...

PSTAT	PSTAT	REF600-16093	Potentiostat
VINIT	POTEN	0.00000E+000	T	Initial &E (V)
VLIMIT1	POTEN	8.00000E-001	F	Scan Limit &1 (V)
VLIMIT2	POTEN	-6.00000E-001	F	Scan Limit &2 (V)
VFINAL	POTEN	0.00000E+000	T	Final &E (V)
SCANRATE	QUANT	4.99999E+001	&Scan Rate (mV/s)
STEPSIZE	QUANT	1.00000E+000	St&ep Size (mV)
CYCLES	IQUANT	5	C&ycles (#)
IMODE	SELECTOR	1	I/E Range &Mode
IRANGE	QUANT	1.50000E+001	&Max Current (mA)
AREA	QUANT	1.00000E+000	Electrode &Area (cm^2)
ELECTRODETYPE	SELECTOR	0	Electrode Type
STRIPPING	TOGGLE	F	Used for Stripping
POLARITY	TOGGLE	F	Signal Polarity
CONDIT	TWOPARAM	F	1.50000E+001	0.00000E+000	Conditionin&g	Time(s)	E(V)
DELAY	TWOPARAM	T	5.00000E+000	0.00000E+000	Init. De&lay	Time(s)	Stab.(mV/s)
EQDELAY	QUANT	3.00000E+000	Equil. &Time (s)
IRCOMP	SELECTOR	0	IRCom&p
PFCOR	QUANT	0.00000E+000	PF Corr. (ohm)
SAMPLINGMODE	SELECTOR	2	Sampling &Mode
OCVCURVE	TABLE	20
	Pt	T	Vf	Vm	Ach	Over
	#	s	V vs. Ref.	V	V	bits
	0	0.25	1.61506E-001	1.61506E-001	8.21002E-005	...........
	1	0.5	1.61504E-001	1.61393E-001	8.06002E-005	...........
	2	0.75	1.61493E-001	1.61370E-001	8.33085E-005	...........
	3	1	1.61468E-001	1.61513E-001	8.43918E-005	...........
	4	1.25	1.61444E-001	1.61446E-001	8.14336E-005	...........
	5	1.5	1.61439E-001	1.61540E-001	8.46835E-005	...........
	6	1.75	1.61452E-001	1.61405E-001	7.93502E-005	...........
	7	2	1.61466E-001	1.61493E-001	8.68085E-005	...........
	8	2.25	1.61470E-001	1.61350E-001	8.22669E-005	...........
	9	2.5	1.61458E-001	1.61388E-001	7.75586E-005	...........
	10	2.75	1.61436E-001	1.61467E-001	7.70170E-005	...........
	11	3	1.61418E-001	1.61417E-001	7.71003E-005	...........
	12	3.25	1.61416E-001	1.61494E-001	7.47670E-005	...........
	13	3.5	1.61426E-001	1.61404E-001	7.44753E-005	...........
	14	3.75	1.61438E-001	1.61476E-001	8.08919E-005	...........
	15	4	1.61443E-001	1.61276E-001	7.70586E-005	...........
	16	4.25	1.61431E-001	1.61387E-001	7.81003E-005	...........
	17	4.5	1.61406E-001	1.61398E-001	8.46418E-005	...........
	18	4.75	1.61384E-001	1.61371E-001	8.07669E-005	...........
	19	5	1.61376E-001	1.61431E-001	7.92669E-005	...........
EOC	QUANT	0.1613757	Open Circuit (V)
PSTATMODEL	IQUANT	4	Pstat Model
PSTATSECTION	LABEL	REF600-16093	Pstat Section
PSTATSERIALNO	LABEL	16093	Pstat Serial Number
CTRLMODE	IQUANT	1	Control Mode
IESTAB	IQUANT	2	I/E Stability
CASPEED	IQUANT	2	Control Amp Speed
CONVENTION	IQUANT	1	Current Convention
ICHRANGE	IQUANT	2	Ich Range
ICHRANGEMODE	TOGGLE	F	Ich Auto Range
ICHOFFSETENABLE	TOGGLE	F	Ich Offset Enable
ICHOFFSET	QUANT	0	Ich Offset (V)
ICHFILTER	IQUANT	2	Ich Filter
VCHRANGE	IQUANT	2	Vch Range
VCHRANGEMODE	TOGGLE	F	Vch Auto Range
VCHOFFSETENABLE	TOGGLE	F	Vch Offset Enable
VCHOFFSET	QUANT	0	Vch Offset (V)
VCHFILTER	IQUANT	2	Vch Filter
ACHRANGE	IQUANT	2	Ach Range
ACHOFFSETENABLE	TOGGLE	F	Ach Offset Enable
ACHOFFSET	QUANT	0	Ach Offset (V)
ACHFILTER	IQUANT	1	Ach Filter
IERANGELOWERLIMIT	IQUANT	1	I/E Range Lower Limit
IERANGEMODE	TOGGLE	F	I/E AutoRange
IERANGE	IQUANT	10	I/E Range
POSFEEDENABLE	TOGGLE	F	Positive Feedback IR Comp
POSFEEDRESISTANCE	QUANT	0	Positive Feedback Resistance (ohm)
ACHSELECT	IQUANT	0	Ach Select
CABLEID	IQUANT	14	Cable ID
DCCALDATE	LABEL	11/5/2019	DC Calibration Date
ACCALDATE	LABEL		AC Calibration Date
THERMOSELECT	IQUANT	1	Thermo Select
FRAMEWORKVERSION	QUANT	6.12	Framework Version
INSTRUMENTVERSION	LABEL	3.11	Instrument Version
CURVE1	TABLE
	Pt	T	Vf	Im	Vu	Sig	Ach	IERange	Over
	#	s	V vs. Ref.	A	V	V	V	#	bits
	0	0.02	1.61278E-001	-1.00163E-006	0.00000E+000	1.61400E-001	8.58965E-005	10	...........
	19	0.4	1.80187E-001	4.64646E-007	0.00000E+000	1.80400E-001	8.52293E-005	10	...........
	38	0.78	1.99225E-001	1.10520E-006	0.00000E+000	1.99400E-001	7.86405E-005	10	...........
	57	1.16	2.18155E-001	6.84838E-007	0.00000E+000	2.18400E-001	9.10674E-005	10	...........
	76	1.54	2.37194E-001	1.73909E-006	0.00000E+000	2.37400E-001	8.23936E-005	10	...........
	95	1.92	2.56339E-001	1.73575E-006	0.00000E+000	2.56400E-001	8.35612E-005	10	...........
	114	2.3	2.75200E-001	9.38392E-007	0.00000E+000	2.75400E-001	7.98916E-005	10	...........
	133	2.68	2.94115E-001	2.56314E-006	0.00000E+000	2.94400E-001	8.13094E-005	10	...........
	152	3.06	3.13067E-001	2.25120E-006	0.00000E+000	3.13400E-001	8.07256E-005	10	...........
	171	3.44	3.32125E-001	2.92846E-006	0.00000E+000	3.32400E-001	8.23936E-005	10	...........
	190	3.82	3.51092E-001	5.19543E-006	0.00000E+000	3.51400E-001	7.64721E-005	10	...........
	209	4.2	3.70092E-001	5.98946E-006	0.00000E+000	3.70400E-001	8.52293E-005	10	...........
	228	4.58	3.89165E-001	7.74265E-006	0.00000E+000	3.89400E-001	9.12342E-005	10	...........
	247	4.96	4.08180E-001	8.93535E-006	0.00000E+000	4.08400E-001	8.36446E-005	10	...........
	266	5.34	4.27005E-001	1.01664E-005	0.00000E+000	4.27400E-001	9.13176E-005	10	...........
	285	5.72	4.45978E-001	1.17244E-005	0.00000E+000	4.46400E-001	8.17264E-005	10	...........
	304	6.1	4.64967E-001	1.42617E-005	0.00000E+000	4.65400E-001	8.34778E-005	10	...........
	323	6.48	4.84013E-001	1.57863E-005	0.00000E+000	4.84400E-001	8.11426E-005	10	...........
	342	6.86	5.02976E-001	1.71875E-005	0.00000E+000	5.03400E-001	8.75645E-005	10	...........
	361	7.24	5.21975E-001	1.84353E-005	0.00000E+000	5.22400E-001	8.66471E-005	10	...........
	380	7.62	5.41050E-001	2.01218E-005	0.00000E+000	5.41400E-001	8.50625E-005	10	...........
	399	8	5.59910E-001	2.13912E-005	0.00000E+000	5.60400E-001	8.12260E-005	10	...........
	418	8.38	5.78851E-001	2.05938E-005	0.00000E+000	5.79400E-001	9.05670E-005	10	...........
	437	8.76	5.97858E-001	1.97715E-005	0.00000E+000	5.98400E-001	8.48123E-005	10	...........
	456	9.14	6.16862E-001	1.93628E-005	0.00000E+000	6.17400E-001	8.63135E-005	10	...........
	475	9.52	6.35863E-001	2.00434E-005	0.00000E+000	6.36400E-001	8.35612E-005	10	...........
	494	9.9	6.54808E-001	2.06339E-005	0.00000E+000	6.55400E-001	8.77313E-005	10	...........
	513	10.28	6.73912E-001	1.96764E-005	0.00000E+000	6.74400E-001	7.67223E-005	10	...........
	532	10.66	6.92891E-001	1.88223E-005	0.00000E+000	6.93400E-001	6.98000E-005	10	...........
	551	11.04	7.11781E-001	1.83836E-005	0.00000E+000	7.12400E-001	8.22268E-005	10	...........
	570	11.42	7.30674E-001	1.78831E-005	0.00000E+000	7.31400E-001	8.10592E-005	10	...........
	589	11.8	7.49729E-001	2.03353E-005	0.00000E+000	7.50400E-001	8.05588E-005	10	...........
	608	12.18	7.68721E-001	1.94862E-005	0.00000E+000	7.69400E-001	8.21434E-005	10	...........
	627	12.56	7.87732E-001	1.83202E-005	0.00000E+000	7.88400E-001	8.83151E-005	10	...........
	646	12.94	7.92760E-001	9.71270E-006	0.00000E+000	7.93400E-001	7.91409E-005	10	...........
	665	13.32	7.73750E-001	2.51977E-006	0.00000E+000	7.74400E-001	8.89823E-005	10	...........
	684	13.7	7.54734E-001	7.56567E-007	0.00000E+000	7.55400E-001	8.43953E-005	10	...........
	703	14.08	7.35772E-001	1.81066E-007	0.00000E+000	7.36400E-001	8.28940E-005	10	...........
	722	14.46	7.16824E-001	-2.37950E-006	0.00000E+000	7.17400E-001	7.83903E-005	10	...........
	741	14.84	6.97914E-001	-3.35868E-006	0.00000E+000	6.98400E-001	8.37280E-005	10	...........
	760	15.22	6.78816E-001	-3.61557E-006	0.00000E+000	6.79400E-001	7.98082E-005	10	...........
[...]
	13704	274.1	-1.34912E-001	-2.41551E-005	0.00000E+000	-1.35000E-001	8.63135E-005	10	...........
	13712	274.26	-1.26940E-001	-2.56281E-005	0.00000E+000	-1.27000E-001	9.41532E-005	10	...........
	13720	274.42	-1.18908E-001	-2.51310E-005	0.00000E+000	-1.19000E-001	8.52293E-005	10	...........
	13728	274.58	-1.10947E-001	-2.42335E-005	0.00000E+000	-1.11000E-001	8.21434E-005	10	...........
	13736	274.74	-1.02926E-001	-2.46322E-005	0.00000E+000	-1.03000E-001	8.18098E-005	10	...........
	13744	274.9	-9.49393E-002	-2.34362E-005	0.00000E+000	-9.50000E-002	8.69807E-005	10	...........
	13752	275.06	-8.69792E-002	-2.40934E-005	0.00000E+000	-8.70000E-002	8.02252E-005	10	...........
	13760	275.22	-7.89665E-002	-2.32593E-005	0.00000E+000	-7.90000E-002	8.44786E-005	10	...........
	13768	275.38	-7.09551E-002	-2.29908E-005	0.00000E+000	-7.10000E-002	8.14762E-005	10	...........
	13776	275.54	-6.29825E-002	-2.28256E-005	0.00000E+000	-6.30000E-002	8.13094E-005	10	...........
	13784	275.7	-5.49814E-002	-2.14094E-005	0.00000E+000	-5.50000E-002	8.58131E-005	10	...........
	13792	275.86	-4.69659E-002	-2.16263E-005	0.00000E+000	-4.70000E-002	8.29774E-005	10	...........
	13800	276.02	-3.89673E-002	-2.15162E-005	0.00000E+000	-3.90000E-002	7.93078E-005	10	...........
	13808	276.18	-3.09830E-002	-2.04169E-005	0.00000E+000	-3.10000E-002	8.05588E-005	10	...........
	13816	276.34	-2.29851E-002	-2.05386E-005	0.00000E+000	-2.30000E-002	8.54795E-005	10	...........
	13824	276.5	-1.49714E-002	-1.87688E-005	0.00000E+000	-1.50000E-002	8.80649E-005	10	...........
	13832	276.66	-7.01009E-003	-1.80381E-005	0.00000E+000	-7.00000E-003	8.67305E-005	10	...........
	13840	276.82	9.37076E-004	-1.87137E-005	0.00000E+000	1.00000E-003	8.77313E-005	10	...........
	13848	276.98	8.93704E-003	-1.78096E-005	0.00000E+000	9.00000E-003	8.50625E-005	10	...........
	13856	277.14	1.69531E-002	-1.68454E-005	0.00000E+000	1.70000E-002	8.17264E-005	10	...........
	13864	277.3	2.49561E-002	-1.67103E-005	0.00000E+000	2.50000E-002	7.85571E-005	10	...........
	13872	277.46	3.29564E-002	-1.51957E-005	0.00000E+000	3.30000E-002	8.12260E-005	10	...........
	13880	277.62	4.09290E-002	-1.55493E-005	0.00000E+000	4.10000E-002	7.92243E-005	10	...........
	13888	277.78	4.89401E-002	-1.45251E-005	0.00000E+000	4.90000E-002	8.60633E-005	10	...........
	13896	277.94	5.69587E-002	-1.35175E-005	0.00000E+000	5.70000E-002	8.12260E-005	10	...........
	13904	278.1	6.48764E-002	-1.33324E-005	0.00000E+000	6.50000E-002	8.46455E-005	10	...........
	13912	278.26	7.29350E-002	-1.24416E-005	0.00000E+000	7.30000E-002	8.33944E-005	10	...........
	13920	278.42	8.09291E-002	-1.12155E-005	0.00000E+000	8.10000E-002	8.31442E-005	10	...........
	13928	278.58	8.89085E-002	-1.08769E-005	0.00000E+000	8.90000E-002	8.65637E-005	10	...........
	13936	278.74	9.69002E-002	-9.60245E-006	0.00000E+000	9.70000E-002	8.62301E-005	10	...........
	13944	278.9	1.04882E-001	-8.50817E-006	0.00000E+000	1.05000E-001	8.46455E-005	10	...........
	13952	279.06	1.12900E-001	-6.93346E-006	0.00000E+000	1.13000E-001	8.76479E-005	10	...........
	13960	279.22	1.20870E-001	-5.50055E-006	0.00000E+000	1.21000E-001	8.04754E-005	10	...........
	13968	279.38	1.28839E-001	-5.47719E-006	0.00000E+000	1.29000E-001	8.58965E-005	10	...........
	13976	279.54	1.36857E-001	-4.24612E-006	0.00000E+000	1.37000E-001	7.94746E-005	10	...........
	13984	279.7	1.44840E-001	-3.21522E-006	0.00000E+000	1.45000E-001	8.07256E-005	10	...........
	13992	279.86	1.52851E-001	-1.81901E-006	0.00000E+000	1.53000E-001	7.72227E-005	10	...........
	14000	280.02	1.60845E-001	-3.21038E-007	0.00000E+000	1.61000E-001	8.28106E-005	10	...........

File: CVTESTKRISTALL5BOX4_2.DTA
EXPLAIN
TAG	CV
TITLE	LABEL	CV	Test &Identifier
DATE	LABEL	12/2/2019	Date
TIME	LABEL	9:54:40	Time
NOTES	NOTES	1	&Notes...

PSTAT	PSTAT	REF600-16093	Potentiostat
VINIT	POTEN	0.00000E+000	T	Initial &E (V)
VLIMIT1	POTEN	8.00000E-001	F	Scan Limit &1 (V)
VLIMIT2	POTEN	-5.00000E-001	F	Scan Limit &2 (V)
VFINAL	POTEN	0.00000E+000	T	Final &E (V)
SCANRATE	QUANT	4.99999E+001	&Scan Rate (mV/s)
STEPSIZE	QUANT	1.00000E+000	St&ep Size (mV)
CYCLES	IQUANT	5	C&ycles (#)
IMODE	SELECTOR	1	I/E Range &Mode
IRANGE	QUANT	1.50000E+001	&Max Current (mA)
AREA	QUANT	1.00000E+000	Electrode &Area (cm^2)
ELECTRODETYPE	SELECTOR	0	Electrode Type
STRIPPING	TOGGLE	F	Used for Stripping
POLARITY	TOGGLE	F	Signal Polarity
CONDIT	TWOPARAM	F	1.50000E+001	0.00000E+000	Conditionin&g	Time(s)	E(V)
DELAY	TWOPARAM	T	5.00000E+000	0.00000E+000	Init. De&lay	Time(s)	Stab.(mV/s)
EQDELAY	QUANT	3.00000E+000	Equil. &Time (s)
IRCOMP	SELECTOR	0	IRCom&p
PFCOR	QUANT	0.00000E+000	PF Corr. (ohm)
SAMPLINGMODE	SELECTOR	2	Sampling &Mode
OCVCURVE	TABLE	20
	Pt	T	Vf	Vm	Ach	Over
	#	s	V vs. Ref.	V	V	bits
	0	0.25	1.90574E-001	1.90574E-001	8.61001E-005	...........
	1	0.5	1.90575E-001	1.90614E-001	8.38502E-005	...........
	2	0.75	1.90580E-001	1.90676E-001	8.56002E-005	...........
	3	1	1.90592E-001	1.90541E-001	8.72251E-005	...........
	4	1.25	1.90605E-001	1.90602E-001	9.09751E-005	...........
	5	1.5	1.90605E-001	1.90491E-001	8.63501E-005	...........
	6	1.75	1.90590E-001	1.90566E-001	8.52668E-005	...........
	7	2	1.90567E-001	1.90443E-001	9.68917E-005	...........
	8	2.25	1.90541E-001	1.90454E-001	8.26835E-005	...........
	9	2.5	1.90515E-001	1.90556E-001	8.93084E-005	...........
	10	2.75	1.90493E-001	1.90348E-001	8.70585E-005	...........
	11	3	1.90477E-001	1.90426E-001	9.20584E-005	...........
	12	3.25	1.90456E-001	1.90353E-001	9.07251E-005	...........
	13	3.5	1.90429E-001	1.90413E-001	8.77668E-005	...........
	14	3.75	1.90405E-001	1.90327E-001	8.64335E-005	...........
	15	4	1.90386E-001	1.90274E-001	8.51002E-005	...........
	16	4.25	1.90365E-001	1.90375E-001	8.46835E-005	...........
	17	4.5	1.90344E-001	1.90253E-001	8.66835E-005	...........
	18	4.75	1.90325E-001	1.90286E-001	8.68085E-005	...........
	19	5	1.90309E-001	1.90228E-001	8.63501E-005	...........
EOC	QUANT	0.190309	Open Circuit (V)
PSTATMODEL	IQUANT	4	Pstat Model
PSTATSECTION	LABEL	REF600-16093	Pstat Section
PSTATSERIALNO	LABEL	16093	Pstat Serial Number
CTRLMODE	IQUANT	1	Control Mode
IESTAB	IQUANT	2	I/E Stability
CASPEED	IQUANT	2	Control Amp Speed
CONVENTION	IQUANT	1	Current Convention
ICHRANGE	IQUANT	2	Ich Range
ICHRANGEMODE	TOGGLE	F	Ich Auto Range
ICHOFFSETENABLE	TOGGLE	F	Ich Offset Enable
ICHOFFSET	QUANT	0	Ich Offset (V)
ICHFILTER	IQUANT	2	Ich Filter
VCHRANGE	IQUANT	2	Vch Range
VCHRANGEMODE	TOGGLE	F	Vch Auto Range
VCHOFFSETENABLE	TOGGLE	F	Vch Offset Enable
VCHOFFSET	QUANT	0	Vch Offset (V)
VCHFILTER	IQUANT	2	Vch Filter
ACHRANGE	IQUANT	2	Ach Range
ACHOFFSETENABLE	TOGGLE	F	Ach Offset Enable
ACHOFFSET	QUANT	0	Ach Offset (V)
ACHFILTER	IQUANT	1	Ach Filter
IERANGELOWERLIMIT	IQUANT	1	I/E Range Lower Limit
IERANGEMODE	TOGGLE	F	I/E AutoRange
IERANGE	IQUANT	10	I/E Range
POSFEEDENABLE	TOGGLE	F	Positive Feedback IR Comp
POSFEEDRESISTANCE	QUANT	0	Positive Feedback Resistance (ohm)
ACHSELECT	IQUANT	0	Ach Select
CABLEID	IQUANT	14	Cable ID
DCCALDATE	LABEL	11/5/2019	DC Calibration Date
ACCALDATE	LABEL		AC Calibration Date
THERMOSELECT	IQUANT	1	Thermo Select
FRAMEWORKVERSION	QUANT	6.12	Framework Version
INSTRUMENTVERSION	LABEL	3.11	Instrument Version
CURVE1	TABLE
	Pt	T	Vf	Im	Vu	Sig	Ach	IERange	Over
	#	s	V vs. Ref.	A	V	V	V	#	bits
	0	0.02	1.90134E-001	-1.80733E-006	0.00000E+000	1.90300E-001	1.83893E-004	10	...........
	18	0.38	2.08262E-001	9.21710E-007	0.00000E+000	2.08300E-001	1.83476E-004	10	...........
	36	0.74	2.26168E-001	1.03181E-006	0.00000E+000	2.26300E-001	1.81892E-004	10	...........
	54	1.1	2.44089E-001	2.25454E-006	0.00000E+000	2.44300E-001	1.69798E-004	10	...........
	72	1.46	2.62074E-001	2.90177E-006	0.00000E+000	2.62300E-001	1.77305E-004	10	...........
	90	1.82	2.80219E-001	3.87929E-006	0.00000E+000	2.80300E-001	1.79723E-004	10	...........
	108	2.18	2.98107E-001	5.69754E-006	0.00000E+000	2.98300E-001	1.77471E-004	10	...........
	126	2.54	3.16040E-001	7.00200E-006	0.00000E+000	3.16300E-001	1.72217E-004	10	...........
	144	2.9	3.33958E-001	1.02749E-005	0.00000E+000	3.34300E-001	1.77305E-004	10	...........
	162	3.26	3.52176E-001	1.41449E-005	0.00000E+000	3.52300E-001	1.69381E-004	10	...........
	180	3.62	3.70018E-001	2.08124E-005	0.00000E+000	3.70300E-001	1.76637E-004	10	...........
	198	3.98	3.88008E-001	2.85391E-005	0.00000E+000	3.88300E-001	1.77638E-004	10	...........
	216	4.34	4.05927E-001	4.25029E-005	0.00000E+000	4.06300E-001	1.76554E-004	10	...........
	234	4.7	4.24249E-001	6.67607E-005	0.00000E+000	4.24300E-001	1.79807E-004	10	...........
	252	5.06	4.41977E-001	9.81547E-005	0.00000E+000	4.42300E-001	1.77305E-004	10	...........
	270	5.42	4.59955E-001	1.32485E-004	0.00000E+000	4.60300E-001	1.76554E-004	10	...........
	288	5.78	4.77825E-001	1.56442E-004	0.00000E+000	4.78300E-001	1.67380E-004	10	...........
	306	6.14	4.95895E-001	1.61745E-004	0.00000E+000	4.96300E-001	1.79973E-004	10	...........
	324	6.5	5.13967E-001	1.50781E-004	0.00000E+000	5.14300E-001	1.73718E-004	10	...........
	342	6.86	5.31888E-001	1.32528E-004	0.00000E+000	5.32300E-001	1.74969E-004	10	...........
	360	7.22	5.49823E-001	1.15939E-004	0.00000E+000	5.50300E-001	1.75637E-004	10	...........
	378	7.58	5.67801E-001	1.00510E-004	0.00000E+000	5.68300E-001	1.81308E-004	10	...........
	396	7.94	5.85963E-001	9.00043E-005	0.00000E+000	5.86300E-001	1.79306E-004	10	...........
	414	8.3	6.03829E-001	8.19222E-005	0.00000E+000	6.04300E-001	1.69131E-004	10	...........
	432	8.66	6.21755E-001	7.37768E-005	0.00000E+000	6.22300E-001	1.81725E-004	10	...........
	450	9.02	6.39769E-001	6.80718E-005	0.00000E+000	6.40300E-001	1.80974E-004	10	...........
	468	9.38	6.57853E-001	6.34712E-005	0.00000E+000	6.58300E-001	1.72634E-004	10	...........
	486	9.74	6.75751E-001	6.12209E-005	0.00000E+000	6.76300E-001	1.79973E-004	10	...........
	504	10.1	6.93732E-001	5.88021E-005	0.00000E+000	6.94300E-001	1.84727E-004	10	...........
	522	10.46	7.11710E-001	5.71023E-005	0.00000E+000	7.12300E-001	1.79056E-004	10	...........
	540	10.82	7.29728E-001	5.59146E-005	0.00000E+000	7.30300E-001	1.65712E-004	10	...........
	558	11.18	7.47678E-001	5.51339E-005	0.00000E+000	7.48300E-001	1.78806E-004	10	...........
	576	11.54	7.65694E-001	5.52974E-005	0.00000E+000	7.66300E-001	1.80224E-004	10	...........
	594	11.9	7.83585E-001	5.51706E-005	0.00000E+000	7.84300E-001	1.83310E-004	10	...........
	612	12.26	7.97669E-001	4.69318E-005	0.00000E+000	7.98300E-001	1.83310E-004	10	...........
	630	12.62	7.79670E-001	2.60219E-005	0.00000E+000	7.80300E-001	1.77972E-004	10	...........
	648	12.98	7.61807E-001	1.49322E-005	0.00000E+000	7.62300E-001	1.83476E-004	10	...........
	666	13.34	7.43665E-001	9.88285E-006	0.00000E+000	7.44300E-001	1.65879E-004	10	...........
	684	13.7	7.25694E-001	5.85767E-006	0.00000E+000	7.26300E-001	1.83226E-004	10	...........
	702	14.06	7.07749E-001	2.57482E-006	0.00000E+000	7.08300E-001	1.76804E-004	10	...........
	720	14.42	6.89892E-001	1.38044E-006	0.00000E+000	6.90300E-001	1.79556E-004	10	...........
[...]
	12745	254.92	-6.49412E-002	-2.78784E-005	0.00000E+000	-6.50000E-002	1.79473E-004	10	...........
	12752	255.06	-5.79019E-002	-2.75798E-005	0.00000E+000	-5.80000E-002	1.70883E-004	10	...........
	12759	255.2	-5.08384E-002	-2.79551E-005	0.00000E+000	-5.10000E-002	1.82559E-004	10	...........
	12766	255.34	-4.39197E-002	-2.71944E-005	0.00000E+000	-4.40000E-002	1.83476E-004	10	...........
	12773	255.48	-3.68816E-002	-2.66640E-005	0.00000E+000	-3.70000E-002	1.64211E-004	10	...........
	12780	255.62	-2.98707E-002	-2.65372E-005	0.00000E+000	-3.00000E-002	1.81224E-004	10	...........
	12787	255.76	-2.29723E-002	-2.49808E-005	0.00000E+000	-2.30000E-002	1.82059E-004	10	...........
	12794	255.9	-1.59020E-002	-2.44204E-005	0.00000E+000	-1.60000E-002	1.81308E-004	10	...........
	12801	256.04	-8.93792E-003	-2.39082E-005	0.00000E+000	-8.99999E-003	1.84394E-004	10	...........
	12808	256.18	-1.93210E-003	-2.28924E-005	0.00000E+000	-1.99999E-003	1.83560E-004	10	...........
	12815	256.32	5.09665E-003	-2.21033E-005	0.00000E+000	5.00001E-003	1.73135E-004	10	...........
	12822	256.46	1.19535E-002	-2.23269E-005	0.00000E+000	1.20000E-002	1.86145E-004	10	...........
	12829	256.6	1.89894E-002	-2.23502E-005	0.00000E+000	1.90000E-002	1.83810E-004	10	...........
	12836	256.74	2.60380E-002	-2.10691E-005	0.00000E+000	2.60000E-002	1.72384E-004	10	...........
	12843	256.88	3.29590E-002	-2.05603E-005	0.00000E+000	3.30000E-002	1.90315E-004	10	...........
	12850	257.02	4.02137E-002	-2.00933E-005	0.00000E+000	4.00000E-002	1.79723E-004	10	...........
	12857	257.16	4.70293E-002	-1.90607E-005	0.00000E+000	4.70000E-002	1.81141E-004	10	...........
	12864	257.3	5.38955E-002	-1.81516E-005	0.00000E+000	5.40000E-002	1.79807E-004	10	...........
	12871	257.44	6.10314E-002	-1.75794E-005	0.00000E+000	6.10000E-002	1.84978E-004	10	...........
	12878	257.58	6.80213E-002	-1.55276E-005	0.00000E+000	6.80000E-002	1.75720E-004	10	...........
	12885	257.72	7.49703E-002	-1.50672E-005	0.00000E+000	7.50000E-002	1.80307E-004	10	...........
	12892	257.86	8.19812E-002	-1.36476E-005	0.00000E+000	8.20000E-002	1.82559E-004	10	...........
	12899	258	8.89463E-002	-1.32940E-005	0.00000E+000	8.90000E-002	1.72384E-004	10	...........
	12906	258.14	9.59490E-002	-1.23365E-005	0.00000E+000	9.60000E-002	1.81391E-004	10	...........
	12913	258.28	1.02937E-001	-1.19045E-005	0.00000E+000	1.03000E-001	1.83810E-004	10	...........
	12920	258.42	1.09898E-001	-1.06300E-005	0.00000E+000	1.10000E-001	1.73218E-004	10	...........
	12927	258.56	1.17163E-001	-1.00545E-005	0.00000E+000	1.17000E-001	1.82059E-004	10	...........
	12934	258.7	1.23939E-001	-9.19210E-006	0.00000E+000	1.24000E-001	1.79556E-004	10	...........
	12941	258.84	1.30912E-001	-7.87928E-006	0.00000E+000	1.31000E-001	1.79807E-004	10	...........
	12948	258.98	1.37949E-001	-6.99018E-006	0.00000E+000	1.38000E-001	1.73301E-004	10	...........
	12955	259.12	1.44925E-001	-5.26201E-006	0.00000E+000	1.45000E-001	1.82809E-004	10	...........
	12962	259.26	1.51889E-001	-4.43629E-006	0.00000E+000	1.52000E-001	1.72801E-004	10	...........
	12969	259.4	1.58896E-001	-3.02005E-006	0.00000E+000	1.59000E-001	1.85978E-004	10	...........
	12976	259.54	1.65836E-001	-3.13849E-006	0.00000E+000	1.66000E-001	1.76637E-004	10	...........
	12983	259.68	1.73085E-001	-1.81400E-006	0.00000E+000	1.73000E-001	1.65795E-004	10	...........
	12990	259.82	1.79854E-001	-1.78565E-006	0.00000E+000	1.80000E-001	1.84644E-004	10	...........
	12997	259.96	1.86837E-001	-1.09505E-006	0.00000E+000	1.87000E-001	1.79973E-004	10	...........
	13000	260.02	1.89821E-001	-7.68094E-007	0.00000E+000	1.90000E-001	1.76637E-004	10	...........