Folder: Julia/20191209 (part 2)

File: CVTESTKRISTALL3BOX6_3.DTA
EXPLAIN
TAG	CV
TITLE	LABEL	CV	Test &Identifier
DATE	LABEL	12/9/2019	Date
TIME	LABEL	14:12:54	Time
NOTES	NOTES	1	&Notes...

PSTAT	PSTAT	REF600-16093	Potentiostat
VINIT	POTEN	0.00000E+000	T	Initial &E (V)
VLIMIT1	POTEN	8.00000E-001	F	Scan Limit &1 (V)
VLIMIT2	POTEN	-5.00000E-001	F	Scan Limit &2 (V)
VFINAL	POTEN	0.00000E+000	T	Final &E (V)
SCANRATE	QUANT	4.99999E+001	&Scan Rate (mV/s)
STEPSIZE	QUANT	1.00000E+000	St&ep Size (mV)
CYCLES	IQUANT	5	C&ycles (#)
IMODE	SELECTOR	1	I/E Range &Mode
IRANGE	QUANT	1.50000E+001	&Max Current (mA)
AREA	QUANT	1.00000E+000	Electrode &Area (cm^2)
ELECTRODETYPE	SELECTOR	0	Electrode Type
STRIPPING	TOGGLE	F	Used for Stripping
POLARITY	TOGGLE	F	Signal Polarity
CONDIT	TWOPARAM	F	1.50000E+001	0.00000E+000	Conditionin&g	Time(s)	E(V)
DELAY	TWOPARAM	T	5.00000E+000	0.00000E+000	Init. De&lay	Time(s)	Stab.(mV/s)
EQDELAY	QUANT	3.00000E+000	Equil. &Time (s)
IRCOMP	SELECTOR	0	IRCom&p
PFCOR	QUANT	0.00000E+000	PF Corr. (ohm)
SAMPLINGMODE	SELECTOR	2	Sampling &Mode
OCVCURVE	TABLE	20
	Pt	T	Vf	Vm	Ach	Over
	#	s	V vs. Ref.	V	V	bits
	0	0.25	1.76191E-001	1.76191E-001	6.72254E-005	...........
	1	0.5	1.76192E-001	1.76217E-001	6.61005E-005	...........
	2	0.75	1.76193E-001	1.76138E-001	7.27670E-005	...........
	3	1	1.76190E-001	1.76108E-001	7.18504E-005	...........
	4	1.25	1.76175E-001	1.76003E-001	6.84338E-005	...........
	5	1.5	1.76142E-001	1.76030E-001	7.03087E-005	...........
	6	1.75	1.76096E-001	1.75913E-001	7.47670E-005	...........
	7	2	1.76047E-001	1.75927E-001	7.49753E-005	...........
	8	2.25	1.76000E-001	1.75954E-001	7.15587E-005	...........
	9	2.5	1.75962E-001	1.75822E-001	7.37253E-005	...........
	10	2.75	1.75933E-001	1.75874E-001	7.15170E-005	...........
	11	3	1.75903E-001	1.75741E-001	7.37253E-005	...........
	12	3.25	1.75868E-001	1.75717E-001	7.23920E-005	...........
	13	3.5	1.75824E-001	1.75665E-001	7.44337E-005	...........
	14	3.75	1.75773E-001	1.75642E-001	7.11837E-005	...........
	15	4	1.75724E-001	1.75643E-001	7.03087E-005	...........
	16	4.25	1.75684E-001	1.75580E-001	7.10170E-005	...........
	17	4.5	1.75652E-001	1.75569E-001	6.86421E-005	...........
	18	4.75	1.75622E-001	1.75473E-001	6.79754E-005	...........
	19	5	1.75589E-001	1.75521E-001	6.41838E-005	...........
EOC	QUANT	0.1755891	Open Circuit (V)
PSTATMODEL	IQUANT	4	Pstat Model
PSTATSECTION	LABEL	REF600-16093	Pstat Section
PSTATSERIALNO	LABEL	16093	Pstat Serial Number
CTRLMODE	IQUANT	1	Control Mode
IESTAB	IQUANT	2	I/E Stability
CASPEED	IQUANT	2	Control Amp Speed
CONVENTION	IQUANT	1	Current Convention
ICHRANGE	IQUANT	2	Ich Range
ICHRANGEMODE	TOGGLE	F	Ich Auto Range
ICHOFFSETENABLE	TOGGLE	F	Ich Offset Enable
ICHOFFSET	QUANT	0	Ich Offset (V)
ICHFILTER	IQUANT	2	Ich Filter
VCHRANGE	IQUANT	2	Vch Range
VCHRANGEMODE	TOGGLE	F	Vch Auto Range
VCHOFFSETENABLE	TOGGLE	F	Vch Offset Enable
VCHOFFSET	QUANT	0	Vch Offset (V)
VCHFILTER	IQUANT	2	Vch Filter
ACHRANGE	IQUANT	2	Ach Range
ACHOFFSETENABLE	TOGGLE	F	Ach Offset Enable
ACHOFFSET	QUANT	0	Ach Offset (V)
ACHFILTER	IQUANT	1	Ach Filter
IERANGELOWERLIMIT	IQUANT	1	I/E Range Lower Limit
IERANGEMODE	TOGGLE	F	I/E AutoRange
IERANGE	IQUANT	10	I/E Range
POSFEEDENABLE	TOGGLE	F	Positive Feedback IR Comp
POSFEEDRESISTANCE	QUANT	0	Positive Feedback Resistance (ohm)
ACHSELECT	IQUANT	0	Ach Select
CABLEID	IQUANT	14	Cable ID
DCCALDATE	LABEL	11/5/2019	DC Calibration Date
ACCALDATE	LABEL		AC Calibration Date
THERMOSELECT	IQUANT	1	Thermo Select
FRAMEWORKVERSION	QUANT	6.12	Framework Version
INSTRUMENTVERSION	LABEL	3.11	Instrument Version
CURVE1	TABLE
	Pt	T	Vf	Im	Vu	Sig	Ach	IERange	Over
	#	s	V vs. Ref.	A	V	V	V	#	bits
	0	0.02	1.75184E-001	-2.09758E-006	0.00000E+000	1.75600E-001	6.14598E-005	10	...........
	18	0.38	1.93123E-001	-1.00497E-006	0.00000E+000	1.93600E-001	5.14516E-005	10	...........
	36	0.74	2.11068E-001	2.06087E-007	0.00000E+000	2.11600E-001	5.77067E-005	10	...........
	54	1.1	2.29171E-001	3.94585E-007	0.00000E+000	2.29600E-001	6.12096E-005	10	...........
	72	1.46	2.47071E-001	1.36043E-006	0.00000E+000	2.47600E-001	5.94582E-005	10	...........
	90	1.82	2.65057E-001	2.43970E-006	0.00000E+000	2.65600E-001	6.17100E-005	10	...........
	108	2.18	2.83001E-001	3.36217E-006	0.00000E+000	2.83600E-001	5.92080E-005	10	...........
	126	2.54	3.01155E-001	5.07032E-006	0.00000E+000	3.01600E-001	5.96250E-005	10	...........
	144	2.9	3.18986E-001	6.73511E-006	0.00000E+000	3.19600E-001	6.11262E-005	10	...........
	162	3.26	3.36966E-001	8.60006E-006	0.00000E+000	3.37600E-001	6.45457E-005	10	...........
	180	3.62	3.54962E-001	1.03516E-005	0.00000E+000	3.55600E-001	7.22186E-005	10	...........
	198	3.98	3.73155E-001	1.28905E-005	0.00000E+000	3.73600E-001	5.80404E-005	10	...........
	216	4.34	3.90962E-001	1.86238E-005	0.00000E+000	3.91600E-001	6.82987E-005	10	...........
	234	4.7	4.08962E-001	2.69794E-005	0.00000E+000	4.09600E-001	6.26274E-005	10	...........
	252	5.06	4.26710E-001	3.88781E-005	0.00000E+000	4.27600E-001	6.52963E-005	10	...........
	270	5.42	4.44929E-001	5.52991E-005	0.00000E+000	4.45600E-001	5.65391E-005	10	...........
	288	5.78	4.62915E-001	7.06191E-005	0.00000E+000	4.63600E-001	6.68809E-005	10	...........
	306	6.14	4.80895E-001	7.72999E-005	0.00000E+000	4.81600E-001	6.95498E-005	10	...........
	324	6.5	4.98810E-001	7.52614E-005	0.00000E+000	4.99600E-001	6.92996E-005	10	...........
	342	6.86	5.16838E-001	6.85072E-005	0.00000E+000	5.17600E-001	6.42955E-005	10	...........
	360	7.22	5.34853E-001	6.13360E-005	0.00000E+000	5.35600E-001	6.70477E-005	10	...........
	378	7.58	5.52812E-001	5.57461E-005	0.00000E+000	5.53600E-001	6.36283E-005	10	...........
	396	7.94	5.70771E-001	5.05950E-005	0.00000E+000	5.71600E-001	6.25440E-005	10	...........
	414	8.3	5.88789E-001	4.75556E-005	0.00000E+000	5.89600E-001	5.34533E-005	10	...........
	432	8.66	6.06790E-001	4.52903E-005	0.00000E+000	6.07600E-001	6.27108E-005	10	...........
	450	9.02	6.24716E-001	4.38191E-005	0.00000E+000	6.25600E-001	6.06258E-005	10	...........
	468	9.38	6.42631E-001	4.26013E-005	0.00000E+000	6.43600E-001	6.50461E-005	10	...........
	486	9.74	6.60706E-001	4.15955E-005	0.00000E+000	6.61600E-001	5.92080E-005	10	...........
	504	10.1	6.78733E-001	4.07697E-005	0.00000E+000	6.79600E-001	5.93748E-005	10	...........
	522	10.46	6.96649E-001	4.06613E-005	0.00000E+000	6.97600E-001	6.21270E-005	10	...........
	540	10.82	7.14579E-001	4.04611E-005	0.00000E+000	7.15600E-001	6.24606E-005	10	...........
	558	11.18	7.32595E-001	3.99006E-005	0.00000E+000	7.33600E-001	7.03838E-005	10	...........
	576	11.54	7.50709E-001	3.99724E-005	0.00000E+000	7.51600E-001	5.96250E-005	10	...........
	594	11.9	7.68587E-001	4.00975E-005	0.00000E+000	7.69600E-001	6.27108E-005	10	...........
	612	12.26	7.86570E-001	4.09516E-005	0.00000E+000	7.87600E-001	5.67893E-005	10	...........
	630	12.62	7.92623E-001	3.18636E-005	0.00000E+000	7.93600E-001	6.35449E-005	10	...........
	648	12.98	7.74718E-001	2.00817E-005	0.00000E+000	7.75600E-001	6.12930E-005	10	...........
	666	13.34	7.56555E-001	1.32191E-005	0.00000E+000	7.57600E-001	6.67141E-005	10	...........
	684	13.7	7.38594E-001	9.80945E-006	0.00000E+000	7.39600E-001	6.22104E-005	10	...........
	702	14.06	7.20643E-001	7.09375E-006	0.00000E+000	7.21600E-001	5.79570E-005	10	...........
	720	14.42	7.02688E-001	4.82177E-006	0.00000E+000	7.03600E-001	5.96250E-005	10	...........
[...]
	12745	254.92	-7.91021E-002	-1.55593E-005	0.00000E+000	-7.90000E-002	6.42121E-005	10	...........
	12752	255.06	-7.21908E-002	-1.49755E-005	0.00000E+000	-7.20000E-002	6.62971E-005	10	...........
	12759	255.2	-6.51771E-002	-1.49054E-005	0.00000E+000	-6.50000E-002	6.41287E-005	10	...........
	12766	255.34	-5.80806E-002	-1.42315E-005	0.00000E+000	-5.80000E-002	6.41287E-005	10	...........
	12773	255.48	-5.10928E-002	-1.31772E-005	0.00000E+000	-5.10000E-002	6.15432E-005	10	...........
	12780	255.62	-4.41692E-002	-1.25650E-005	0.00000E+000	-4.40000E-002	6.41287E-005	10	...........
	12787	255.76	-3.72045E-002	-1.23665E-005	0.00000E+000	-3.70000E-002	6.43789E-005	10	...........
	12794	255.9	-3.00504E-002	-1.14140E-005	0.00000E+000	-3.00000E-002	6.03756E-005	10	...........
	12801	256.04	-2.31778E-002	-1.11755E-005	0.00000E+000	-2.30000E-002	6.33781E-005	10	...........
	12808	256.18	-1.62143E-002	-1.06767E-005	0.00000E+000	-1.60000E-002	6.77983E-005	10	...........
	12815	256.32	-9.19563E-003	-1.05716E-005	0.00000E+000	-8.99999E-003	6.59635E-005	10	...........
	12822	256.46	-2.11792E-003	-1.04482E-005	0.00000E+000	-1.99999E-003	7.12178E-005	10	...........
	12829	256.6	4.68940E-003	-9.60746E-006	0.00000E+000	5.00001E-003	6.20436E-005	10	...........
	12836	256.74	1.17126E-002	-9.18042E-006	0.00000E+000	1.20000E-002	6.81320E-005	10	...........
	12843	256.88	1.87615E-002	-8.74671E-006	0.00000E+000	1.90000E-002	7.37198E-005	10	...........
	12850	257.02	2.59234E-002	-8.57322E-006	0.00000E+000	2.60000E-002	6.27108E-005	10	...........
	12857	257.16	3.27321E-002	-8.00773E-006	0.00000E+000	3.30000E-002	6.37951E-005	10	...........
	12864	257.3	3.96662E-002	-7.83758E-006	0.00000E+000	4.00000E-002	7.10510E-005	10	...........
	12871	257.44	4.67838E-002	-6.90510E-006	0.00000E+000	4.70000E-002	6.59635E-005	10	...........
	12878	257.58	5.37428E-002	-7.02854E-006	0.00000E+000	5.40000E-002	6.88826E-005	10	...........
	12885	257.72	6.06895E-002	-6.68825E-006	0.00000E+000	6.10000E-002	6.55465E-005	10	...........
	12892	257.86	6.77320E-002	-5.53725E-006	0.00000E+000	6.80000E-002	6.10428E-005	10	...........
	12899	258	7.47429E-002	-5.51389E-006	0.00000E+000	7.50000E-002	6.27942E-005	10	...........
	12906	258.14	8.17419E-002	-4.53137E-006	0.00000E+000	8.20000E-002	5.75399E-005	10	...........
	12913	258.28	8.86690E-002	-4.38958E-006	0.00000E+000	8.90000E-002	6.95498E-005	10	...........
	12920	258.42	9.56966E-002	-4.47966E-006	0.00000E+000	9.60000E-002	6.87992E-005	10	...........
	12927	258.56	1.02766E-001	-4.31452E-006	0.00000E+000	1.03000E-001	6.68809E-005	10	...........
	12934	258.7	1.09644E-001	-3.88581E-006	0.00000E+000	1.10000E-001	6.36283E-005	10	...........
	12941	258.84	1.16716E-001	-3.74902E-006	0.00000E+000	1.17000E-001	6.76315E-005	10	...........
	12948	258.98	1.23695E-001	-2.65640E-006	0.00000E+000	1.24000E-001	7.08008E-005	10	...........
	12955	259.12	1.30712E-001	-2.46290E-006	0.00000E+000	1.31000E-001	6.87992E-005	10	...........
	12962	259.26	1.37631E-001	-1.57380E-006	0.00000E+000	1.38000E-001	6.02088E-005	10	...........
	12969	259.4	1.44635E-001	-1.50874E-006	0.00000E+000	1.45000E-001	7.22186E-005	10	...........
	12976	259.54	1.51628E-001	-1.46203E-006	0.00000E+000	1.52000E-001	6.47959E-005	10	...........
	12983	259.68	1.58729E-001	-9.18225E-007	0.00000E+000	1.59000E-001	5.77067E-005	10	...........
	12990	259.82	1.65592E-001	-2.49309E-007	0.00000E+000	1.66000E-001	6.03756E-005	10	...........
	12997	259.96	1.72602E-001	2.37782E-007	0.00000E+000	1.73000E-001	6.88826E-005	10	...........
	13000	260.02	1.75620E-001	8.41641E-007	0.00000E+000	1.76000E-001	6.67975E-005	10	...........