Folder: Julia/20190222 HUPD

File: CV_test_1.DTA
EXPLAIN
TAG	CV
TITLE	LABEL	CV	Test &Identifier
DATE	LABEL	2/22/2019	Date
TIME	LABEL	10:49:54	Time
NOTES	NOTES	2	&Notes...
	0.5 M H2SO4
	Pt-wire CE
PSTAT	PSTAT	REF600-16093	Potentiostat
VINIT	POTEN	0.00000E+000	T	Initial &E (V)
VLIMIT1	POTEN	7.00000E-001	F	Scan Limit &1 (V)
VLIMIT2	POTEN	-6.80000E-001	F	Scan Limit &2 (V)
VFINAL	POTEN	0.00000E+000	T	Final &E (V)
SCANRATE	QUANT	9.99998E+001	&Scan Rate (mV/s)
STEPSIZE	QUANT	1.00000E+001	St&ep Size (mV)
CYCLES	IQUANT	10	C&ycles (#)
IMODE	SELECTOR	1	I/E Range &Mode
IRANGE	QUANT	1.00000E+000	&Max Current (mA)
AREA	QUANT	1.00000E+000	Electrode &Area (cm^2)
ELECTRODETYPE	SELECTOR	0	Electrode Type
STRIPPING	TOGGLE	F	Used for Stripping
POLARITY	TOGGLE	F	Signal Polarity
CONDIT	TWOPARAM	F	1.50000E+001	0.00000E+000	Conditionin&g	Time(s)	E(V)
DELAY	TWOPARAM	T	5.00000E+000	0.00000E+000	Init. De&lay	Time(s)	Stab.(mV/s)
EQDELAY	QUANT	5.00000E+000	Equil. &Time (s)
IRCOMP	SELECTOR	0	IRCom&p
PFCOR	QUANT	0.00000E+000	PF Corr. (ohm)
SAMPLINGMODE	SELECTOR	2	Sampling &Mode
OCVCURVE	TABLE	20
	Pt	T	Vf	Vm	Ach	Over
	#	s	V vs. Ref.	V	V	bits
	0	0.25	1.21166E-001	1.21166E-001	5.76931E-005	...........
	1	0.5	1.21166E-001	1.21159E-001	6.67930E-005	...........
	2	0.75	1.21166E-001	1.21160E-001	6.53263E-005	...........
	3	1	1.21164E-001	1.21160E-001	6.37930E-005	...........
	4	1.25	1.21162E-001	1.21156E-001	6.11264E-005	...........
	5	1.5	1.21161E-001	1.21153E-001	6.74929E-005	...........
	6	1.75	1.21159E-001	1.21151E-001	6.59263E-005	...........
	7	2	1.21156E-001	1.21150E-001	6.63930E-005	...........
	8	2.25	1.21154E-001	1.21150E-001	6.79596E-005	...........
	9	2.5	1.21152E-001	1.21147E-001	6.88263E-005	...........
	10	2.75	1.21150E-001	1.21146E-001	6.47930E-005	...........
	11	3	1.21149E-001	1.21143E-001	6.47597E-005	...........
	12	3.25	1.21147E-001	1.21142E-001	6.45263E-005	...........
	13	3.5	1.21146E-001	1.21140E-001	6.46930E-005	...........
	14	3.75	1.21144E-001	1.21134E-001	6.07930E-005	...........
	15	4	1.21142E-001	1.21134E-001	6.27930E-005	...........
	16	4.25	1.21139E-001	1.21131E-001	6.38597E-005	...........
	17	4.5	1.21136E-001	1.21130E-001	6.14930E-005	...........
	18	4.75	1.21134E-001	1.21129E-001	6.00264E-005	...........
	19	5	1.21132E-001	1.21129E-001	6.01931E-005	...........
EOC	QUANT	0.1211317	Open Circuit (V)
PSTATMODEL	IQUANT	4	Pstat Model
PSTATSECTION	LABEL	REF600-16093	Pstat Section
PSTATSERIALNO	LABEL	16093	Pstat Serial Number
CTRLMODE	IQUANT	1	Control Mode
IESTAB	IQUANT	2	I/E Stability
CASPEED	IQUANT	2	Control Amp Speed
CONVENTION	IQUANT	1	Current Convention
ICHRANGE	IQUANT	2	Ich Range
ICHRANGEMODE	TOGGLE	F	Ich Auto Range
ICHOFFSETENABLE	TOGGLE	F	Ich Offset Enable
ICHOFFSET	QUANT	0	Ich Offset (V)
ICHFILTER	IQUANT	2	Ich Filter
VCHRANGE	IQUANT	2	Vch Range
VCHRANGEMODE	TOGGLE	F	Vch Auto Range
VCHOFFSETENABLE	TOGGLE	F	Vch Offset Enable
VCHOFFSET	QUANT	0	Vch Offset (V)
VCHFILTER	IQUANT	2	Vch Filter
ACHRANGE	IQUANT	2	Ach Range
ACHOFFSETENABLE	TOGGLE	F	Ach Offset Enable
ACHOFFSET	QUANT	0	Ach Offset (V)
ACHFILTER	IQUANT	1	Ach Filter
IERANGELOWERLIMIT	IQUANT	1	I/E Range Lower Limit
IERANGEMODE	TOGGLE	F	I/E AutoRange
IERANGE	IQUANT	9	I/E Range
POSFEEDENABLE	TOGGLE	F	Positive Feedback IR Comp
POSFEEDRESISTANCE	QUANT	0	Positive Feedback Resistance (ohm)
ACHSELECT	IQUANT	0	Ach Select
CABLEID	IQUANT	14	Cable ID
DCCALDATE	LABEL	2/18/2019	DC Calibration Date
ACCALDATE	LABEL	2/18/2019	AC Calibration Date
THERMOSELECT	IQUANT	1	Thermo Select
FRAMEWORKVERSION	QUANT	6.33	Framework Version
INSTRUMENTVERSION	LABEL	3.50	Instrument Version
CURVE1	TABLE
	Pt	T	Vf	Im	Vu	Sig	Ach	IERange	Over
	#	s	V vs. Ref.	A	V	V	V	#	bits
	0	0.1	1.21131E-001	-2.39347E-007	0.00000E+000	1.21150E-001	8.17113E-005	9	...........
	2	0.3	1.41090E-001	1.64200E-005	0.00000E+000	1.41150E-001	8.02944E-005	9	...........
	4	0.5	1.61100E-001	1.73385E-005	0.00000E+000	1.61150E-001	8.72121E-005	9	...........
	6	0.7	1.81095E-001	1.82145E-005	0.00000E+000	1.81150E-001	8.34782E-005	9	...........
	8	0.9	2.01081E-001	1.92907E-005	0.00000E+000	2.01150E-001	8.57786E-005	9	...........
	10	1.1	2.21062E-001	2.06892E-005	0.00000E+000	2.21150E-001	8.27781E-005	9	...........
	12	1.3	2.41008E-001	2.24753E-005	0.00000E+000	2.41150E-001	8.39950E-005	9	...........
	14	1.5	2.61038E-001	2.47730E-005	0.00000E+000	2.61150E-001	8.57619E-005	9	...........
	16	1.7	2.81031E-001	2.76927E-005	0.00000E+000	2.81150E-001	8.33949E-005	9	...........
	18	1.9	3.01001E-001	3.14718E-005	0.00000E+000	3.01150E-001	8.21447E-005	9	...........
	20	2.1	3.20887E-001	3.62928E-005	0.00000E+000	3.21150E-001	8.38783E-005	9	...........
	22	2.3	3.40956E-001	4.26584E-005	0.00000E+000	3.41150E-001	8.41617E-005	9	...........
	24	2.5	3.60920E-001	5.09327E-005	0.00000E+000	3.61150E-001	8.12779E-005	9	...........
	26	2.7	3.80939E-001	6.16156E-005	0.00000E+000	3.81150E-001	8.14112E-005	9	...........
	28	2.9	4.00804E-001	7.54120E-005	0.00000E+000	4.01150E-001	8.11612E-005	9	...........
	30	3.1	4.20876E-001	9.32190E-005	0.00000E+000	4.21150E-001	7.71106E-005	9	...........
	32	3.3	4.40807E-001	1.16421E-004	0.00000E+000	4.41150E-001	7.72606E-005	9	...........
	34	3.5	4.60874E-001	1.46347E-004	0.00000E+000	4.61150E-001	8.01444E-005	9	...........
	36	3.7	4.80744E-001	1.84575E-004	0.00000E+000	4.81150E-001	7.88775E-005	9	...........
	38	3.9	5.00868E-001	2.31957E-004	0.00000E+000	5.01150E-001	7.82608E-005	9	...........
	40	4.1	5.20744E-001	2.87319E-004	0.00000E+000	5.21150E-001	8.03944E-005	9	...........
	42	4.3	5.40862E-001	3.47601E-004	0.00000E+000	5.41150E-001	7.86942E-005	9	...........
	44	4.5	5.60685E-001	4.07694E-004	0.00000E+000	5.61150E-001	7.73106E-005	9	...........
	46	4.7	5.80827E-001	4.62804E-004	0.00000E+000	5.81150E-001	7.41601E-005	9	...........
	48	4.9	6.00683E-001	5.10406E-004	0.00000E+000	6.01150E-001	7.31433E-005	9	...........
	50	5.1	6.20797E-001	5.49855E-004	0.00000E+000	6.21150E-001	7.87109E-005	9	...........
	52	5.3	6.40649E-001	5.82026E-004	0.00000E+000	6.41150E-001	7.82108E-005	9	...........
	54	5.5	6.60843E-001	6.08123E-004	0.00000E+000	6.61150E-001	7.55437E-005	9	...........
	56	5.7	6.80646E-001	6.30009E-004	0.00000E+000	6.81150E-001	7.78607E-005	9	...........
	58	5.9	7.00663E-001	6.48644E-004	0.00000E+000	7.01150E-001	7.69939E-005	9	...........
	60	6.1	6.80700E-001	2.45188E-004	0.00000E+000	6.81150E-001	7.98443E-005	9	...........
	62	6.3	6.60896E-001	1.16396E-004	0.00000E+000	6.61150E-001	7.95110E-005	9	...........
	64	6.5	6.40701E-001	5.42982E-005	0.00000E+000	6.41150E-001	8.01277E-005	9	...........
	66	6.7	6.20847E-001	1.96490E-005	0.00000E+000	6.21150E-001	7.96110E-005	9	...........
	68	6.9	6.00753E-001	-1.72788E-006	0.00000E+000	6.01150E-001	7.55937E-005	9	...........
	70	7.1	5.80889E-001	-1.63324E-005	0.00000E+000	5.81150E-001	7.62271E-005	9	...........
	72	7.3	5.60738E-001	-2.72387E-005	0.00000E+000	5.61150E-001	8.08278E-005	9	...........
	74	7.5	5.40902E-001	-3.62256E-005	0.00000E+000	5.41150E-001	7.96943E-005	9	...........
	76	7.7	5.20784E-001	-4.41507E-005	0.00000E+000	5.21150E-001	7.72606E-005	9	...........
	78	7.9	5.00893E-001	-5.14524E-005	0.00000E+000	5.01150E-001	7.61438E-005	9	...........
	80	8.1	4.80789E-001	-5.84060E-005	0.00000E+000	4.81150E-001	8.08945E-005	9	...........
	82	8.3	4.60912E-001	-6.53196E-005	0.00000E+000	4.61150E-001	8.26281E-005	9	...........
[...]
	2722	272.3	-2.59711E-001	2.70818E-004	0.00000E+000	-2.60000E-001	7.97443E-005	9	...........
	2723	272.4	-2.49636E-001	2.92571E-004	0.00000E+000	-2.50000E-001	7.60104E-005	9	...........
	2724	272.5	-2.39674E-001	3.16796E-004	0.00000E+000	-2.40000E-001	8.06778E-005	9	...........
	2725	272.6	-2.29734E-001	3.42926E-004	0.00000E+000	-2.30000E-001	7.84941E-005	9	...........
	2726	272.7	-2.19793E-001	3.70206E-004	0.00000E+000	-2.20000E-001	8.53452E-005	9	...........
	2727	272.8	-2.09591E-001	3.97992E-004	0.00000E+000	-2.10000E-001	7.63938E-005	9	...........
	2728	272.9	-1.99756E-001	4.25337E-004	0.00000E+000	-2.00000E-001	8.31448E-005	9	...........
	2729	273	-1.89752E-001	4.51257E-004	0.00000E+000	-1.90000E-001	7.79774E-005	9	...........
	2730	273.1	-1.79757E-001	4.74926E-004	0.00000E+000	-1.80000E-001	8.14946E-005	9	...........
	2731	273.2	-1.69796E-001	4.95444E-004	0.00000E+000	-1.70000E-001	7.67272E-005	9	...........
	2732	273.3	-1.59767E-001	5.12249E-004	0.00000E+000	-1.60000E-001	7.83275E-005	9	...........
	2733	273.4	-1.49778E-001	5.24852E-004	0.00000E+000	-1.50000E-001	7.43435E-005	9	...........
	2734	273.5	-1.39831E-001	5.33161E-004	0.00000E+000	-1.40000E-001	8.02777E-005	9	...........
	2735	273.6	-1.29724E-001	5.37080E-004	0.00000E+000	-1.30000E-001	7.18431E-005	9	...........
	2736	273.7	-1.19812E-001	5.36871E-004	0.00000E+000	-1.20000E-001	8.06945E-005	9	...........
	2737	273.8	-1.09797E-001	5.32955E-004	0.00000E+000	-1.10000E-001	7.35434E-005	9	...........
	2738	273.9	-9.98550E-002	5.25836E-004	0.00000E+000	-1.00000E-001	7.96110E-005	9	...........
	2739	274	-8.98769E-002	5.15795E-004	0.00000E+000	-9.00000E-002	7.48936E-005	9	...........
	2740	274.1	-7.98276E-002	5.03532E-004	0.00000E+000	-8.00000E-002	8.19780E-005	9	...........
	2741	274.2	-6.98700E-002	4.89413E-004	0.00000E+000	-7.00000E-002	7.60438E-005	9	...........
	2742	274.3	-5.99164E-002	4.73848E-004	0.00000E+000	-6.00000E-002	7.89942E-005	9	...........
	2743	274.4	-4.97959E-002	4.57266E-004	0.00000E+000	-5.00000E-002	7.47602E-005	9	...........
	2744	274.5	-3.98956E-002	4.39940E-004	0.00000E+000	-4.00000E-002	8.13279E-005	9	...........
	2745	274.6	-2.98538E-002	4.22223E-004	0.00000E+000	-3.00000E-002	7.58604E-005	9	...........
	2746	274.7	-1.99301E-002	4.04507E-004	0.00000E+000	-2.00000E-002	7.59771E-005	9	...........
	2747	274.8	-9.86182E-003	3.87016E-004	0.00000E+000	-1.00000E-002	7.17431E-005	9	...........
	2748	274.9	7.95235E-005	3.70099E-004	0.00000E+000	9.31323E-010	7.45435E-005	9	...........
	2749	275	1.00191E-002	3.54060E-004	0.00000E+000	1.00000E-002	7.42102E-005	9	...........
	2750	275.1	1.99288E-002	3.39353E-004	0.00000E+000	2.00000E-002	7.56937E-005	9	...........
	2751	275.2	3.00095E-002	3.26212E-004	0.00000E+000	3.00000E-002	7.19098E-005	9	...........
	2752	275.3	4.00753E-002	3.14761E-004	0.00000E+000	4.00000E-002	6.94428E-005	9	...........
	2753	275.4	5.00408E-002	3.05338E-004	0.00000E+000	5.00000E-002	7.05929E-005	9	...........
	2754	275.5	5.99684E-002	2.97848E-004	0.00000E+000	6.00000E-002	7.64938E-005	9	...........
	2755	275.6	7.00227E-002	2.92501E-004	0.00000E+000	7.00000E-002	7.29766E-005	9	...........
	2756	275.7	8.00705E-002	2.89178E-004	0.00000E+000	8.00000E-002	7.34600E-005	9	...........
	2757	275.8	8.99545E-002	2.87939E-004	0.00000E+000	9.00000E-002	7.39601E-005	9	...........
	2758	275.9	9.98970E-002	2.89053E-004	0.00000E+000	1.00000E-001	7.71939E-005	9	...........
	2759	276	1.09961E-001	2.92267E-004	0.00000E+000	1.10000E-001	7.82608E-005	9	...........
	2760	276.1	1.20066E-001	2.98291E-004	0.00000E+000	1.20000E-001	7.57604E-005	9	...........

File: CV_test_2.DTA
EXPLAIN
TAG	CV
TITLE	LABEL	CV	Test &Identifier
DATE	LABEL	2/22/2019	Date
TIME	LABEL	10:57:34	Time
NOTES	NOTES	2	&Notes...
	0.5 M H2SO4
	Pt-wire CE
PSTAT	PSTAT	REF600-16093	Potentiostat
VINIT	POTEN	0.00000E+000	T	Initial &E (V)
VLIMIT1	POTEN	9.00000E-001	F	Scan Limit &1 (V)
VLIMIT2	POTEN	-6.95000E-001	F	Scan Limit &2 (V)
VFINAL	POTEN	0.00000E+000	T	Final &E (V)
SCANRATE	QUANT	2.00000E+002	&Scan Rate (mV/s)
STEPSIZE	QUANT	1.00000E+001	St&ep Size (mV)
CYCLES	IQUANT	10	C&ycles (#)
IMODE	SELECTOR	1	I/E Range &Mode
IRANGE	QUANT	1.00000E+001	&Max Current (mA)
AREA	QUANT	1.00000E+000	Electrode &Area (cm^2)
ELECTRODETYPE	SELECTOR	0	Electrode Type
STRIPPING	TOGGLE	F	Used for Stripping
POLARITY	TOGGLE	F	Signal Polarity
CONDIT	TWOPARAM	F	1.50000E+001	0.00000E+000	Conditionin&g	Time(s)	E(V)
DELAY	TWOPARAM	T	5.00000E+000	0.00000E+000	Init. De&lay	Time(s)	Stab.(mV/s)
EQDELAY	QUANT	5.00000E+000	Equil. &Time (s)
IRCOMP	SELECTOR	0	IRCom&p
PFCOR	QUANT	0.00000E+000	PF Corr. (ohm)
SAMPLINGMODE	SELECTOR	2	Sampling &Mode
OCVCURVE	TABLE	20
	Pt	T	Vf	Vm	Ach	Over
	#	s	V vs. Ref.	V	V	bits
	0	0.25	-3.70547E-001	-3.70547E-001	6.70596E-005	...........
	1	0.5	-3.70546E-001	-3.70528E-001	6.37263E-005	...........
	2	0.75	-3.70544E-001	-3.70503E-001	6.62596E-005	...........
	3	1	-3.70537E-001	-3.70462E-001	6.08930E-005	...........
	4	1.25	-3.70522E-001	-3.70442E-001	6.53597E-005	...........
	5	1.5	-3.70498E-001	-3.70384E-001	6.19597E-005	...........
	6	1.75	-3.70468E-001	-3.70344E-001	6.15597E-005	...........
	7	2	-3.70432E-001	-3.70276E-001	6.40263E-005	...........
	8	2.25	-3.70388E-001	-3.70234E-001	6.52263E-005	...........
	9	2.5	-3.70340E-001	-3.70208E-001	6.05931E-005	...........
	10	2.75	-3.70292E-001	-3.70192E-001	6.50263E-005	...........
	11	3	-3.70250E-001	-3.70171E-001	6.82929E-005	...........
	12	3.25	-3.70218E-001	-3.70162E-001	6.51597E-005	...........
	13	3.5	-3.70194E-001	-3.70143E-001	6.50597E-005	...........
	14	3.75	-3.70175E-001	-3.70121E-001	6.12264E-005	...........
	15	4	-3.70158E-001	-3.70081E-001	6.08264E-005	...........
	16	4.25	-3.70138E-001	-3.70009E-001	5.85931E-005	...........
	17	4.5	-3.70109E-001	-3.69925E-001	5.33932E-005	...........
	18	4.75	-3.70064E-001	-3.69821E-001	5.47598E-005	...........
	19	5	-3.70000E-001	-3.69678E-001	5.38265E-005	...........
EOC	QUANT	-0.3699999	Open Circuit (V)
PSTATMODEL	IQUANT	4	Pstat Model
PSTATSECTION	LABEL	REF600-16093	Pstat Section
PSTATSERIALNO	LABEL	16093	Pstat Serial Number
CTRLMODE	IQUANT	1	Control Mode
IESTAB	IQUANT	2	I/E Stability
CASPEED	IQUANT	2	Control Amp Speed
CONVENTION	IQUANT	1	Current Convention
ICHRANGE	IQUANT	2	Ich Range
ICHRANGEMODE	TOGGLE	F	Ich Auto Range
ICHOFFSETENABLE	TOGGLE	F	Ich Offset Enable
ICHOFFSET	QUANT	0	Ich Offset (V)
ICHFILTER	IQUANT	2	Ich Filter
VCHRANGE	IQUANT	2	Vch Range
VCHRANGEMODE	TOGGLE	F	Vch Auto Range
VCHOFFSETENABLE	TOGGLE	F	Vch Offset Enable
VCHOFFSET	QUANT	0	Vch Offset (V)
VCHFILTER	IQUANT	2	Vch Filter
ACHRANGE	IQUANT	2	Ach Range
ACHOFFSETENABLE	TOGGLE	F	Ach Offset Enable
ACHOFFSET	QUANT	0	Ach Offset (V)
ACHFILTER	IQUANT	1	Ach Filter
IERANGELOWERLIMIT	IQUANT	1	I/E Range Lower Limit
IERANGEMODE	TOGGLE	F	I/E AutoRange
IERANGE	IQUANT	10	I/E Range
POSFEEDENABLE	TOGGLE	F	Positive Feedback IR Comp
POSFEEDRESISTANCE	QUANT	0	Positive Feedback Resistance (ohm)
ACHSELECT	IQUANT	0	Ach Select
CABLEID	IQUANT	14	Cable ID
DCCALDATE	LABEL	2/18/2019	DC Calibration Date
ACCALDATE	LABEL	2/18/2019	AC Calibration Date
THERMOSELECT	IQUANT	1	Thermo Select
FRAMEWORKVERSION	QUANT	6.33	Framework Version
INSTRUMENTVERSION	LABEL	3.50	Instrument Version
CURVE1	TABLE
	Pt	T	Vf	Im	Vu	Sig	Ach	IERange	Over
	#	s	V vs. Ref.	A	V	V	V	#	bits
	0	0.05	-3.69538E-001	-2.94065E-006	0.00000E+000	-3.70000E-001	6.96260E-005	10	...........
	3	0.2	-3.39676E-001	7.50703E-005	0.00000E+000	-3.40000E-001	6.58915E-005	10	...........
	6	0.35	-3.09752E-001	7.82748E-005	0.00000E+000	-3.10000E-001	7.20935E-005	10	...........
	9	0.5	-2.79661E-001	9.47282E-005	0.00000E+000	-2.80000E-001	7.12932E-005	10	...........
	12	0.65	-2.49599E-001	1.28724E-004	0.00000E+000	-2.50000E-001	6.60582E-005	10	...........
	15	0.8	-2.19791E-001	1.80170E-004	0.00000E+000	-2.20000E-001	7.48943E-005	10	...........
	18	0.95	-1.89767E-001	2.54257E-004	0.00000E+000	-1.90000E-001	7.68950E-005	10	...........
	21	1.1	-1.59753E-001	3.40632E-004	0.00000E+000	-1.60000E-001	7.89623E-005	10	...........
	24	1.25	-1.29657E-001	4.26167E-004	0.00000E+000	-1.30000E-001	6.85257E-005	10	...........
	27	1.4	-9.98787E-002	4.86977E-004	0.00000E+000	-1.00000E-001	7.74618E-005	10	...........
	30	1.55	-6.98491E-002	5.11239E-004	0.00000E+000	-7.00000E-002	7.15933E-005	10	...........
	33	1.7	-3.98774E-002	4.95507E-004	0.00000E+000	-4.00000E-002	7.41941E-005	10	...........
	36	1.85	-9.76332E-003	4.58675E-004	0.00000E+000	-9.99999E-003	6.54247E-005	10	...........
	39	2	1.98450E-002	4.18395E-004	0.00000E+000	2.00000E-002	7.42608E-005	10	...........
	42	2.15	5.00365E-002	3.91650E-004	0.00000E+000	5.00000E-002	6.75587E-005	10	...........
	45	2.3	8.00458E-002	3.85181E-004	0.00000E+000	8.00000E-002	6.99594E-005	10	...........
	48	2.45	1.09960E-001	4.05359E-004	0.00000E+000	1.10000E-001	6.97594E-005	10	...........
	51	2.6	1.39866E-001	4.51939E-004	0.00000E+000	1.40000E-001	7.17600E-005	10	...........
	54	2.75	1.69961E-001	5.26187E-004	0.00000E+000	1.70000E-001	6.70252E-005	10	...........
	57	2.9	2.00036E-001	6.22293E-004	0.00000E+000	2.00000E-001	6.86924E-005	10	...........
	60	3.05	2.29730E-001	7.42982E-004	0.00000E+000	2.30000E-001	7.42275E-005	10	...........
	63	3.2	2.59828E-001	8.80117E-004	0.00000E+000	2.60000E-001	7.48943E-005	10	...........
	66	3.35	2.89841E-001	1.03047E-003	0.00000E+000	2.90000E-001	7.53945E-005	10	...........
	69	3.5	3.19810E-001	1.16711E-003	0.00000E+000	3.20000E-001	7.24936E-005	10	...........
	72	3.65	3.49445E-001	1.28982E-003	0.00000E+000	3.50000E-001	7.26936E-005	10	...........
	75	3.8	3.79787E-001	1.38759E-003	0.00000E+000	3.80000E-001	7.21601E-005	10	...........
	78	3.95	4.09720E-001	1.46375E-003	0.00000E+000	4.10000E-001	7.23269E-005	10	...........
	81	4.1	4.39714E-001	1.50543E-003	0.00000E+000	4.40000E-001	7.24936E-005	10	...........
	84	4.25	4.69637E-001	1.53185E-003	0.00000E+000	4.70000E-001	7.26936E-005	10	...........
	87	4.4	4.99643E-001	1.55772E-003	0.00000E+000	5.00000E-001	6.51913E-005	10	...........
	90	4.55	5.29656E-001	1.59789E-003	0.00000E+000	5.30000E-001	7.41608E-005	10	...........
	93	4.7	5.59583E-001	1.63732E-003	0.00000E+000	5.60000E-001	6.50912E-005	10	...........
	96	4.85	5.89444E-001	1.67555E-003	0.00000E+000	5.90000E-001	7.31271E-005	10	...........
	99	5	6.19555E-001	1.70377E-003	0.00000E+000	6.20000E-001	6.85590E-005	10	...........
	102	5.15	6.49591E-001	1.72326E-003	0.00000E+000	6.50000E-001	7.12932E-005	10	...........
	105	5.3	6.79400E-001	1.72859E-003	0.00000E+000	6.80000E-001	7.53278E-005	10	...........
	108	5.45	7.09430E-001	1.72461E-003	0.00000E+000	7.10000E-001	7.26603E-005	10	...........
	111	5.6	7.39511E-001	1.71467E-003	0.00000E+000	7.40000E-001	7.29938E-005	10	...........
	114	5.75	7.69606E-001	1.70814E-003	0.00000E+000	7.70000E-001	7.33939E-005	10	...........
	117	5.9	7.99391E-001	1.71229E-003	0.00000E+000	8.00000E-001	7.72951E-005	10	...........
	120	6.05	8.29413E-001	1.73984E-003	0.00000E+000	8.30000E-001	7.20601E-005	10	...........
[...]
	3137	156.9	-5.84402E-001	-1.94520E-003	0.00000E+000	-5.85000E-001	6.88258E-005	10	...........
	3140	157.05	-6.14275E-001	-2.07124E-003	0.00000E+000	-6.15000E-001	6.69252E-005	10	...........
	3143	157.2	-6.44263E-001	-2.02742E-003	0.00000E+000	-6.45000E-001	6.77254E-005	10	...........
	3146	157.35	-6.74455E-001	-2.29378E-003	0.00000E+000	-6.75000E-001	7.04930E-005	10	...........
	3148	157.45	-6.94232E-001	-2.75678E-003	0.00000E+000	-6.95000E-001	7.31271E-005	10	...........
CURVE11	TABLE
	Pt	T	Vf	Im	Vu	Sig	Ach	IERange	Over
	#	s	V vs. Ref.	A	V	V	V	#	bits
	3149	157.5	-6.84387E-001	-7.10947E-004	0.00000E+000	-6.85000E-001	6.51246E-005	10	...........
	3150	157.55	-6.74551E-001	2.69894E-004	0.00000E+000	-6.75000E-001	7.35606E-005	10	...........
	3151	157.6	-6.64423E-001	8.06403E-004	0.00000E+000	-6.65000E-001	6.77587E-005	10	...........
	3152	157.65	-6.54396E-001	1.10119E-003	0.00000E+000	-6.55000E-001	6.74253E-005	10	...........
	3153	157.7	-6.44357E-001	1.24826E-003	0.00000E+000	-6.45000E-001	6.32907E-005	10	...........
	3154	157.75	-6.34480E-001	1.33918E-003	0.00000E+000	-6.35000E-001	6.94593E-005	10	...........
	3155	157.8	-6.24450E-001	1.39679E-003	0.00000E+000	-6.25000E-001	6.34240E-005	10	...........
	3156	157.85	-6.14353E-001	1.45782E-003	0.00000E+000	-6.15000E-001	6.45577E-005	10	...........
	3157	157.9	-6.04460E-001	1.51978E-003	0.00000E+000	-6.05000E-001	6.56914E-005	10	...........
	3158	157.95	-5.94551E-001	1.60749E-003	0.00000E+000	-5.95000E-001	6.96927E-005	10	...........
	3159	158	-5.84510E-001	1.70387E-003	0.00000E+000	-5.85000E-001	6.66584E-005	10	...........
	3160	158.05	-5.74364E-001	1.81431E-003	0.00000E+000	-5.75000E-001	6.31906E-005	10	...........
	3161	158.1	-5.64457E-001	1.88524E-003	0.00000E+000	-5.65000E-001	6.78588E-005	10	...........
	3162	158.15	-5.54519E-001	1.84427E-003	0.00000E+000	-5.55000E-001	6.36574E-005	10	...........
	3163	158.2	-5.44560E-001	1.64802E-003	0.00000E+000	-5.45000E-001	6.38909E-005	10	...........
	3164	158.25	-5.34373E-001	1.41867E-003	0.00000E+000	-5.35000E-001	6.43243E-005	10	...........
	3165	158.3	-5.24511E-001	1.23952E-003	0.00000E+000	-5.25000E-001	7.11932E-005	10	...........
	3166	158.35	-5.14552E-001	1.14578E-003	0.00000E+000	-5.15000E-001	6.73253E-005	10	...........
	3167	158.4	-5.04538E-001	1.10426E-003	0.00000E+000	-5.05000E-001	6.73920E-005	10	...........
	3168	158.45	-4.94393E-001	1.11326E-003	0.00000E+000	-4.95000E-001	6.03564E-005	10	...........
	3169	158.5	-4.84515E-001	1.13115E-003	0.00000E+000	-4.85000E-001	6.57581E-005	10	...........
	3170	158.55	-4.74569E-001	1.14713E-003	0.00000E+000	-4.75000E-001	6.34907E-005	10	...........
	3171	158.6	-4.64575E-001	1.15157E-003	0.00000E+000	-4.65000E-001	6.95260E-005	10	...........
	3172	158.65	-4.54446E-001	1.19683E-003	0.00000E+000	-4.55000E-001	6.04231E-005	10	...........
	3173	158.7	-4.44507E-001	1.28067E-003	0.00000E+000	-4.45000E-001	6.59582E-005	10	...........
	3174	158.75	-4.34563E-001	1.38786E-003	0.00000E+000	-4.35000E-001	6.73586E-005	10	...........
	3175	158.8	-4.24620E-001	1.42899E-003	0.00000E+000	-4.25000E-001	6.87924E-005	10	...........
	3176	158.85	-4.14377E-001	1.32941E-003	0.00000E+000	-4.15000E-001	6.21236E-005	10	...........
	3177	158.9	-4.04578E-001	1.06623E-003	0.00000E+000	-4.05000E-001	6.88591E-005	10	...........
	3178	158.95	-3.94575E-001	7.99063E-004	0.00000E+000	-3.95000E-001	6.29572E-005	10	...........
	3179	159	-3.84680E-001	6.15889E-004	0.00000E+000	-3.85000E-001	6.61582E-005	10	...........
	3180	159.05	-3.74576E-001	5.18997E-004	0.00000E+000	-3.75000E-001	6.45577E-005	10	...........