Folder: Julia/20191209

File: CVTESTKRISTALL3BOX6_1.DTA
EXPLAIN
TAG	CV
TITLE	LABEL	CV	Test &Identifier
DATE	LABEL	12/9/2019	Date
TIME	LABEL	12:58:59	Time
NOTES	NOTES	1	&Notes...

PSTAT	PSTAT	REF600-16093	Potentiostat
VINIT	POTEN	0.00000E+000	T	Initial &E (V)
VLIMIT1	POTEN	7.00000E-001	F	Scan Limit &1 (V)
VLIMIT2	POTEN	-6.00000E-001	F	Scan Limit &2 (V)
VFINAL	POTEN	0.00000E+000	T	Final &E (V)
SCANRATE	QUANT	4.99999E+001	&Scan Rate (mV/s)
STEPSIZE	QUANT	1.00000E+000	St&ep Size (mV)
CYCLES	IQUANT	5	C&ycles (#)
IMODE	SELECTOR	1	I/E Range &Mode
IRANGE	QUANT	1.50000E+001	&Max Current (mA)
AREA	QUANT	1.00000E+000	Electrode &Area (cm^2)
ELECTRODETYPE	SELECTOR	0	Electrode Type
STRIPPING	TOGGLE	F	Used for Stripping
POLARITY	TOGGLE	F	Signal Polarity
CONDIT	TWOPARAM	F	1.50000E+001	0.00000E+000	Conditionin&g	Time(s)	E(V)
DELAY	TWOPARAM	T	5.00000E+000	0.00000E+000	Init. De&lay	Time(s)	Stab.(mV/s)
EQDELAY	QUANT	3.00000E+000	Equil. &Time (s)
IRCOMP	SELECTOR	0	IRCom&p
PFCOR	QUANT	0.00000E+000	PF Corr. (ohm)
SAMPLINGMODE	SELECTOR	2	Sampling &Mode
OCVCURVE	TABLE	20
	Pt	T	Vf	Vm	Ach	Over
	#	s	V vs. Ref.	V	V	bits
	0	0.25	-1.40785E-001	-1.40785E-001	6.96004E-005	...........
	1	0.5	-1.40778E-001	-1.40425E-001	6.89337E-005	...........
	2	0.75	-1.40719E-001	-1.39157E-001	6.56838E-005	...........
	3	1	-1.40497E-001	-1.38297E-001	6.79338E-005	...........
	4	1.25	-1.40098E-001	-1.41729E-001	6.73504E-005	...........
	5	1.5	-1.39730E-001	-1.37227E-001	6.87254E-005	...........
	6	1.75	-1.39515E-001	-1.39412E-001	6.61005E-005	...........
	7	2	-1.39383E-001	-1.42193E-001	6.23088E-005	...........
	8	2.25	-1.39384E-001	-1.36377E-001	6.41422E-005	...........
	9	2.5	-1.39445E-001	-1.38986E-001	6.32255E-005	...........
	10	2.75	-1.39312E-001	-1.40318E-001	6.61005E-005	...........
	11	3	-1.39063E-001	-1.37020E-001	6.03089E-005	...........
	12	3.25	-1.38902E-001	-1.39654E-001	6.82671E-005	...........
	13	3.5	-1.38850E-001	-1.41006E-001	6.70171E-005	...........
	14	3.75	-1.39002E-001	-1.39545E-001	6.04755E-005	...........
	15	4	-1.39379E-001	-1.39719E-001	6.89754E-005	...........
	16	4.25	-1.39749E-001	-1.41077E-001	6.85171E-005	...........
	17	4.5	-1.39944E-001	-1.37628E-001	5.91422E-005	...........
	18	4.75	-1.39929E-001	-1.40405E-001	7.09754E-005	...........
	19	5	-1.39780E-001	-1.41198E-001	7.01837E-005	...........
EOC	QUANT	-0.13978	Open Circuit (V)
PSTATMODEL	IQUANT	4	Pstat Model
PSTATSECTION	LABEL	REF600-16093	Pstat Section
PSTATSERIALNO	LABEL	16093	Pstat Serial Number
CTRLMODE	IQUANT	1	Control Mode
IESTAB	IQUANT	2	I/E Stability
CASPEED	IQUANT	2	Control Amp Speed
CONVENTION	IQUANT	1	Current Convention
ICHRANGE	IQUANT	2	Ich Range
ICHRANGEMODE	TOGGLE	F	Ich Auto Range
ICHOFFSETENABLE	TOGGLE	F	Ich Offset Enable
ICHOFFSET	QUANT	0	Ich Offset (V)
ICHFILTER	IQUANT	2	Ich Filter
VCHRANGE	IQUANT	2	Vch Range
VCHRANGEMODE	TOGGLE	F	Vch Auto Range
VCHOFFSETENABLE	TOGGLE	F	Vch Offset Enable
VCHOFFSET	QUANT	0	Vch Offset (V)
VCHFILTER	IQUANT	2	Vch Filter
ACHRANGE	IQUANT	2	Ach Range
ACHOFFSETENABLE	TOGGLE	F	Ach Offset Enable
ACHOFFSET	QUANT	0	Ach Offset (V)
ACHFILTER	IQUANT	1	Ach Filter
IERANGELOWERLIMIT	IQUANT	1	I/E Range Lower Limit
IERANGEMODE	TOGGLE	F	I/E AutoRange
IERANGE	IQUANT	10	I/E Range
POSFEEDENABLE	TOGGLE	F	Positive Feedback IR Comp
POSFEEDRESISTANCE	QUANT	0	Positive Feedback Resistance (ohm)
ACHSELECT	IQUANT	0	Ach Select
CABLEID	IQUANT	14	Cable ID
DCCALDATE	LABEL	11/5/2019	DC Calibration Date
ACCALDATE	LABEL		AC Calibration Date
THERMOSELECT	IQUANT	1	Thermo Select
FRAMEWORKVERSION	QUANT	6.12	Framework Version
INSTRUMENTVERSION	LABEL	3.11	Instrument Version
EXPERIMENTABORTED	TOGGLE	T	Experiment Aborted
CURVE	TABLE	2436
	Pt	T	Vf	Im	Vu	Sig	Ach	IERange	Over	Cycle
	#	s	V vs. Ref.	A	V	V	V	#	bits	#
	0	0.02	-1.39843E-001	-4.95674E-006	0.00000E+000	-1.39800E-001	6.49627E-005	10	...........	0
	24	0.5	-1.15836E-001	-4.92671E-006	0.00000E+000	-1.15800E-001	6.41287E-005	10	...........	0
	48	0.98	-9.18472E-002	-4.91337E-006	0.00000E+000	-9.18000E-002	6.06258E-005	10	...........	0
	72	1.46	-6.78719E-002	-4.70152E-006	0.00000E+000	-6.78000E-002	6.73813E-005	10	...........	0
	96	1.94	-4.38893E-002	-4.45464E-006	0.00000E+000	-4.38000E-002	6.65473E-005	10	...........	0
	120	2.42	-1.98769E-002	-4.77658E-006	0.00000E+000	-1.98000E-002	6.66307E-005	10	...........	0
	144	2.9	4.05963E-003	-4.15438E-006	0.00000E+000	4.20000E-003	6.14598E-005	10	...........	0
	168	3.38	2.80333E-002	-5.04849E-006	0.00000E+000	2.82000E-002	6.52129E-005	10	...........	0
	192	3.86	5.20025E-002	-5.10687E-006	0.00000E+000	5.22000E-002	6.28776E-005	10	...........	0
	216	4.34	7.60143E-002	-4.79493E-006	0.00000E+000	7.62000E-002	5.91246E-005	10	...........	0
	240	4.82	1.00017E-001	-3.09679E-006	0.00000E+000	1.00200E-001	5.83740E-005	10	...........	0
	264	5.3	1.24020E-001	-2.80987E-006	0.00000E+000	1.24200E-001	5.82906E-005	10	...........	0
	288	5.78	1.47963E-001	-3.86579E-006	0.00000E+000	1.48200E-001	5.82072E-005	10	...........	0
	312	6.26	1.71956E-001	-4.47132E-006	0.00000E+000	1.72200E-001	6.74647E-005	10	...........	0
	336	6.74	1.95936E-001	-4.53971E-006	0.00000E+000	1.96200E-001	6.08760E-005	10	...........	0
	360	7.22	2.19933E-001	-3.84577E-006	0.00000E+000	2.20200E-001	6.32113E-005	10	...........	0
	384	7.7	2.43827E-001	-3.93085E-006	0.00000E+000	2.44200E-001	5.92080E-005	10	...........	0
	408	8.18	2.67797E-001	-3.96921E-006	0.00000E+000	2.68200E-001	6.37951E-005	10	...........	0
	432	8.66	2.91785E-001	-3.79573E-006	0.00000E+000	2.92200E-001	7.01336E-005	10	...........	0
	456	9.14	3.15815E-001	-2.59468E-006	0.00000E+000	3.16200E-001	6.41287E-005	10	...........	0
	480	9.62	3.39760E-001	-3.60056E-006	0.00000E+000	3.40200E-001	6.32947E-005	10	...........	0
	504	10.1	3.63735E-001	-3.12681E-006	0.00000E+000	3.64200E-001	6.55465E-005	10	...........	0
	528	10.58	3.87724E-001	-3.08344E-006	0.00000E+000	3.88200E-001	6.97166E-005	10	...........	0
	552	11.06	4.11729E-001	-1.29689E-006	0.00000E+000	4.12200E-001	6.10428E-005	10	...........	0
	576	11.54	4.35627E-001	-3.58555E-006	0.00000E+000	4.36200E-001	6.01254E-005	10	...........	0
	600	12.02	4.59629E-001	-3.65561E-006	0.00000E+000	4.60200E-001	5.55383E-005	10	...........	0
	624	12.5	4.83627E-001	-3.42541E-006	0.00000E+000	4.84200E-001	6.02088E-005	10	...........	0
	648	12.98	5.07632E-001	-2.88160E-006	0.00000E+000	5.08200E-001	6.09594E-005	10	...........	0
	672	13.46	5.31579E-001	-3.47879E-006	0.00000E+000	5.32200E-001	6.27108E-005	10	...........	0
	696	13.94	5.55532E-001	-3.25693E-006	0.00000E+000	5.56200E-001	6.31278E-005	10	...........	0
	720	14.42	5.79563E-001	-3.07677E-006	0.00000E+000	5.80200E-001	5.32031E-005	10	...........	0
	744	14.9	6.03548E-001	-4.16772E-006	0.00000E+000	6.04200E-001	5.76234E-005	10	...........	0
	768	15.38	6.27486E-001	-3.56553E-006	0.00000E+000	6.28200E-001	6.44623E-005	10	...........	0
	792	15.86	6.51456E-001	-3.38704E-006	0.00000E+000	6.52200E-001	5.71229E-005	10	...........	0
	816	16.34	6.75471E-001	-3.41707E-006	0.00000E+000	6.76200E-001	6.40453E-005	10	...........	0
	840	16.82	6.99469E-001	-3.80240E-006	0.00000E+000	7.00200E-001	5.90412E-005	10	...........	0
	864	17.3	6.75485E-001	-3.20855E-006	0.00000E+000	6.76200E-001	6.04590E-005	10	...........	0
	888	17.78	6.51464E-001	-4.06263E-006	0.00000E+000	6.52200E-001	6.30444E-005	10	...........	0
	912	18.26	6.27541E-001	-2.24772E-006	0.00000E+000	6.28200E-001	5.60387E-005	10	...........	0
[...]
	1584	31.7	-4.38657E-002	-4.31285E-006	0.00000E+000	-4.38000E-002	6.57967E-005	10	...........	0
	1608	32.18	-6.78490E-002	-4.37290E-006	0.00000E+000	-6.78000E-002	5.82906E-005	10	...........	0
	1632	32.66	-9.18431E-002	-4.36789E-006	0.00000E+000	-9.18000E-002	5.80404E-005	10	...........	0
	1656	33.14	-1.15819E-001	-4.03594E-006	0.00000E+000	-1.15800E-001	5.23690E-005	10	...........	0
	1680	33.62	-1.39828E-001	-4.15271E-006	0.00000E+000	-1.39800E-001	6.54631E-005	10	...........	0
	1704	34.1	-1.63773E-001	-3.48212E-006	0.00000E+000	-1.63800E-001	5.02840E-005	10	...........	0
	1728	34.58	-1.87793E-001	-4.83830E-006	0.00000E+000	-1.87800E-001	6.06258E-005	10	...........	0
	1752	35.06	-2.11783E-001	-4.77492E-006	0.00000E+000	-2.11800E-001	6.20436E-005	10	...........	0
	1776	35.54	-2.35743E-001	-4.94840E-006	0.00000E+000	-2.35800E-001	5.94582E-005	10	...........	0
	1800	36.02	-2.59684E-001	-4.53971E-006	0.00000E+000	-2.59800E-001	5.91246E-005	10	...........	0
	1824	36.5	-2.83677E-001	-4.64981E-006	0.00000E+000	-2.83800E-001	6.32113E-005	10	...........	0
	1848	36.98	-3.07635E-001	-4.44630E-006	0.00000E+000	-3.07800E-001	6.27942E-005	10	...........	0
	1872	37.46	-3.31652E-001	-4.42795E-006	0.00000E+000	-3.31800E-001	6.00420E-005	10	...........	0
	1896	37.94	-3.55538E-001	-3.06009E-006	0.00000E+000	-3.55800E-001	6.64639E-005	10	...........	0
	1920	38.42	-3.79569E-001	-4.77325E-006	0.00000E+000	-3.79800E-001	6.15432E-005	10	...........	0
	1944	38.9	-4.03563E-001	-5.11021E-006	0.00000E+000	-4.03800E-001	6.37117E-005	10	...........	0
	1968	39.38	-4.27504E-001	-4.64480E-006	0.00000E+000	-4.27800E-001	6.28776E-005	10	...........	0
	1992	39.86	-4.51496E-001	-5.30538E-006	0.00000E+000	-4.51800E-001	5.88744E-005	10	...........	0
	2016	40.34	-4.75499E-001	-5.04849E-006	0.00000E+000	-4.75800E-001	6.75481E-005	10	...........	0
	2040	40.82	-4.99470E-001	-5.04849E-006	0.00000E+000	-4.99800E-001	6.20436E-005	10	...........	0
	2064	41.3	-5.23415E-001	-3.89081E-006	0.00000E+000	-5.23800E-001	5.79570E-005	10	...........	0
	2088	41.78	-5.47392E-001	-5.20529E-006	0.00000E+000	-5.47800E-001	6.57967E-005	10	...........	0
	2112	42.26	-5.71359E-001	-5.22864E-006	0.00000E+000	-5.71800E-001	6.10428E-005	10	...........	0
	2136	42.74	-5.95318E-001	-5.00845E-006	0.00000E+000	-5.95800E-001	5.80404E-005	10	...........	0
	2160	43.22	-5.79620E-001	-5.09686E-006	0.00000E+000	-5.80000E-001	5.84574E-005	10	...........	1
	2184	43.7	-5.55562E-001	-3.78906E-006	0.00000E+000	-5.56000E-001	5.78736E-005	10	...........	1
	2208	44.18	-5.31673E-001	-5.22197E-006	0.00000E+000	-5.32000E-001	6.28776E-005	10	...........	1
	2232	44.66	-5.07705E-001	-4.99844E-006	0.00000E+000	-5.08000E-001	5.98752E-005	10	...........	1
	2256	45.14	-4.83735E-001	-5.19528E-006	0.00000E+000	-4.84000E-001	6.24606E-005	10	...........	1
	2280	45.62	-4.59743E-001	-4.23945E-006	0.00000E+000	-4.60000E-001	6.67975E-005	10	...........	1
	2304	46.1	-4.35760E-001	-4.29283E-006	0.00000E+000	-4.36000E-001	5.95416E-005	10	...........	1
	2328	46.58	-4.11788E-001	-4.83330E-006	0.00000E+000	-4.12000E-001	5.58719E-005	10	...........	1
	2352	47.06	-3.87801E-001	-4.77325E-006	0.00000E+000	-3.88000E-001	5.62889E-005	10	...........	1
	2376	47.54	-3.63840E-001	-4.99010E-006	0.00000E+000	-3.64000E-001	5.62055E-005	10	...........	1
	2400	48.02	-3.39819E-001	-4.88168E-006	0.00000E+000	-3.40000E-001	5.70395E-005	10	...........	1
	2424	48.5	-3.15825E-001	-4.50802E-006	0.00000E+000	-3.16000E-001	6.81320E-005	10	...........	1
	2435	48.72	-3.04817E-001	-4.56640E-006	0.00000E+000	-3.05000E-001	5.79570E-005	10	...........	1

File: CVTESTKRISTALL3BOX6_2.DTA
EXPLAIN
TAG	CV
TITLE	LABEL	CV	Test &Identifier
DATE	LABEL	12/9/2019	Date
TIME	LABEL	14:06:09	Time
NOTES	NOTES	1	&Notes...

PSTAT	PSTAT	REF600-16093	Potentiostat
VINIT	POTEN	0.00000E+000	T	Initial &E (V)
VLIMIT1	POTEN	8.00000E-001	F	Scan Limit &1 (V)
VLIMIT2	POTEN	-6.00000E-001	F	Scan Limit &2 (V)
VFINAL	POTEN	0.00000E+000	T	Final &E (V)
SCANRATE	QUANT	4.99999E+001	&Scan Rate (mV/s)
STEPSIZE	QUANT	1.00000E+000	St&ep Size (mV)
CYCLES	IQUANT	5	C&ycles (#)
IMODE	SELECTOR	1	I/E Range &Mode
IRANGE	QUANT	1.50000E+001	&Max Current (mA)
AREA	QUANT	1.00000E+000	Electrode &Area (cm^2)
ELECTRODETYPE	SELECTOR	0	Electrode Type
STRIPPING	TOGGLE	F	Used for Stripping
POLARITY	TOGGLE	F	Signal Polarity
CONDIT	TWOPARAM	F	1.50000E+001	0.00000E+000	Conditionin&g	Time(s)	E(V)
DELAY	TWOPARAM	T	5.00000E+000	0.00000E+000	Init. De&lay	Time(s)	Stab.(mV/s)
EQDELAY	QUANT	3.00000E+000	Equil. &Time (s)
IRCOMP	SELECTOR	0	IRCom&p
PFCOR	QUANT	0.00000E+000	PF Corr. (ohm)
SAMPLINGMODE	SELECTOR	2	Sampling &Mode
OCVCURVE	TABLE	20
	Pt	T	Vf	Vm	Ach	Over
	#	s	V vs. Ref.	V	V	bits
	0	0.25	1.39323E-001	1.39323E-001	5.99339E-005	...........
	1	0.5	1.39322E-001	1.39273E-001	6.13505E-005	...........
	2	0.75	1.39318E-001	1.39343E-001	6.42671E-005	...........
	3	1	1.39312E-001	1.39220E-001	6.52255E-005	...........
	4	1.25	1.39303E-001	1.39301E-001	6.86838E-005	...........
	5	1.5	1.39292E-001	1.39297E-001	6.18505E-005	...........
	6	1.75	1.39283E-001	1.39192E-001	6.13089E-005	...........
	7	2	1.39273E-001	1.39210E-001	6.03922E-005	...........
	8	2.25	1.39256E-001	1.39182E-001	6.28922E-005	...........
	9	2.5	1.39233E-001	1.39231E-001	6.45588E-005	...........
	10	2.75	1.39213E-001	1.39110E-001	6.31838E-005	...........
	11	3	1.39198E-001	1.39199E-001	6.17672E-005	...........
	12	3.25	1.39185E-001	1.39207E-001	6.44338E-005	...........
	13	3.5	1.39179E-001	1.39163E-001	6.25588E-005	...........
	14	3.75	1.39180E-001	1.39215E-001	6.11005E-005	...........
	15	4	1.39184E-001	1.39122E-001	6.18922E-005	...........
	16	4.25	1.39183E-001	1.39190E-001	6.20589E-005	...........
	17	4.5	1.39176E-001	1.39103E-001	6.50588E-005	...........
	18	4.75	1.39165E-001	1.39137E-001	6.55588E-005	...........
	19	5	1.39151E-001	1.39118E-001	6.37672E-005	...........
EOC	QUANT	0.139151	Open Circuit (V)
PSTATMODEL	IQUANT	4	Pstat Model
PSTATSECTION	LABEL	REF600-16093	Pstat Section
PSTATSERIALNO	LABEL	16093	Pstat Serial Number
CTRLMODE	IQUANT	1	Control Mode
IESTAB	IQUANT	2	I/E Stability
CASPEED	IQUANT	2	Control Amp Speed
CONVENTION	IQUANT	1	Current Convention
ICHRANGE	IQUANT	2	Ich Range
ICHRANGEMODE	TOGGLE	F	Ich Auto Range
ICHOFFSETENABLE	TOGGLE	F	Ich Offset Enable
ICHOFFSET	QUANT	0	Ich Offset (V)
ICHFILTER	IQUANT	2	Ich Filter
VCHRANGE	IQUANT	2	Vch Range
VCHRANGEMODE	TOGGLE	F	Vch Auto Range
VCHOFFSETENABLE	TOGGLE	F	Vch Offset Enable
VCHOFFSET	QUANT	0	Vch Offset (V)
VCHFILTER	IQUANT	2	Vch Filter
ACHRANGE	IQUANT	2	Ach Range
ACHOFFSETENABLE	TOGGLE	F	Ach Offset Enable
ACHOFFSET	QUANT	0	Ach Offset (V)
ACHFILTER	IQUANT	1	Ach Filter
IERANGELOWERLIMIT	IQUANT	1	I/E Range Lower Limit
IERANGEMODE	TOGGLE	F	I/E AutoRange
IERANGE	IQUANT	10	I/E Range
POSFEEDENABLE	TOGGLE	F	Positive Feedback IR Comp
POSFEEDRESISTANCE	QUANT	0	Positive Feedback Resistance (ohm)
ACHSELECT	IQUANT	0	Ach Select
CABLEID	IQUANT	14	Cable ID
DCCALDATE	LABEL	11/5/2019	DC Calibration Date
ACCALDATE	LABEL		AC Calibration Date
THERMOSELECT	IQUANT	1	Thermo Select
FRAMEWORKVERSION	QUANT	6.12	Framework Version
INSTRUMENTVERSION	LABEL	3.11	Instrument Version
CURVE1	TABLE
	Pt	T	Vf	Im	Vu	Sig	Ach	IERange	Over
	#	s	V vs. Ref.	A	V	V	V	#	bits
	0	0.02	1.38664E-001	-2.64322E-007	0.00000E+000	1.39150E-001	8.59799E-005	10	...........
	19	0.4	1.57711E-001	7.61571E-007	0.00000E+000	1.58150E-001	9.03168E-005	10	...........
	38	0.78	1.76706E-001	1.52390E-006	0.00000E+000	1.77150E-001	8.28106E-005	10	...........
	57	1.16	1.95678E-001	1.57061E-006	0.00000E+000	1.96150E-001	9.86569E-005	10	...........
	76	1.54	2.14660E-001	1.62399E-006	0.00000E+000	2.15150E-001	9.52374E-005	10	...........
	95	1.92	2.33587E-001	2.03435E-006	0.00000E+000	2.34150E-001	9.31524E-005	10	...........
	114	2.3	2.52576E-001	2.38966E-006	0.00000E+000	2.53150E-001	9.43200E-005	10	...........
	133	2.68	2.71501E-001	2.64655E-006	0.00000E+000	2.72150E-001	8.94827E-005	10	...........
	152	3.06	2.90548E-001	3.49061E-006	0.00000E+000	2.91150E-001	8.88155E-005	10	...........
	171	3.44	3.09553E-001	4.23793E-006	0.00000E+000	3.10150E-001	8.54795E-005	10	...........
	190	3.82	3.28569E-001	5.04030E-006	0.00000E+000	3.29150E-001	9.23184E-005	10	...........
	209	4.2	3.47566E-001	5.91773E-006	0.00000E+000	3.48150E-001	8.88989E-005	10	...........
	228	4.58	3.66563E-001	6.74345E-006	0.00000E+000	3.67150E-001	8.66471E-005	10	...........
	247	4.96	3.85483E-001	8.54501E-006	0.00000E+000	3.86150E-001	8.43953E-005	10	...........
	266	5.34	4.04493E-001	1.03399E-005	0.00000E+000	4.05150E-001	8.36446E-005	10	...........
	285	5.72	4.23374E-001	1.28187E-005	0.00000E+000	4.24150E-001	8.53961E-005	10	...........
	304	6.1	4.42431E-001	1.62484E-005	0.00000E+000	4.43150E-001	8.88155E-005	10	...........
	323	6.48	4.61414E-001	1.89291E-005	0.00000E+000	4.62150E-001	9.14844E-005	10	...........
	342	6.86	4.80449E-001	2.30810E-005	0.00000E+000	4.81150E-001	8.99832E-005	10	...........
	361	7.24	4.99426E-001	2.68576E-005	0.00000E+000	5.00150E-001	9.11508E-005	10	...........
	380	7.62	5.18355E-001	3.09612E-005	0.00000E+000	5.19150E-001	8.30608E-005	10	...........
	399	8	5.37364E-001	3.44859E-005	0.00000E+000	5.38150E-001	8.99832E-005	10	...........
	418	8.38	5.56236E-001	3.82425E-005	0.00000E+000	5.57150E-001	8.73143E-005	10	...........
	437	8.76	5.75318E-001	4.12485E-005	0.00000E+000	5.76150E-001	9.24018E-005	10	...........
	456	9.14	5.94314E-001	4.53454E-005	0.00000E+000	5.95150E-001	8.75645E-005	10	...........
	475	9.52	6.13334E-001	4.82963E-005	0.00000E+000	6.14150E-001	9.04836E-005	10	...........
	494	9.9	6.32367E-001	5.18561E-005	0.00000E+000	6.33150E-001	8.98998E-005	10	...........
	513	10.28	6.51202E-001	5.35776E-005	0.00000E+000	6.52150E-001	8.71475E-005	10	...........
	532	10.66	6.70184E-001	5.56310E-005	0.00000E+000	6.71150E-001	9.64885E-005	10	...........
	551	11.04	6.89206E-001	5.70739E-005	0.00000E+000	6.90150E-001	9.21516E-005	10	...........
	570	11.42	7.08167E-001	5.75544E-005	0.00000E+000	7.09150E-001	9.42366E-005	10	...........
	589	11.8	7.27166E-001	5.87370E-005	0.00000E+000	7.28150E-001	9.12342E-005	10	...........
	608	12.18	7.46172E-001	5.89622E-005	0.00000E+000	7.47150E-001	9.99079E-005	10	...........
	627	12.56	7.65187E-001	5.95528E-005	0.00000E+000	7.66150E-001	8.32276E-005	10	...........
	646	12.94	7.84245E-001	6.09056E-005	0.00000E+000	7.85150E-001	8.96496E-005	10	...........
	665	13.32	7.95145E-001	5.37527E-005	0.00000E+000	7.96150E-001	8.66471E-005	10	...........
	684	13.7	7.76248E-001	3.34767E-005	0.00000E+000	7.77150E-001	8.93159E-005	10	...........
	703	14.08	7.57188E-001	2.27057E-005	0.00000E+000	7.58150E-001	8.67305E-005	10	...........
	722	14.46	7.38212E-001	1.56479E-005	0.00000E+000	7.39150E-001	8.41450E-005	10	...........
	741	14.84	7.19205E-001	1.19697E-005	0.00000E+000	7.20150E-001	8.73143E-005	10	...........
	760	15.22	7.00187E-001	8.54835E-006	0.00000E+000	7.01150E-001	8.73977E-005	10	...........
[...]
	13710	274.22	-1.51104E-001	-1.05900E-005	0.00000E+000	-1.51000E-001	5.13682E-005	10	...........
	13718	274.38	-1.43132E-001	-1.03481E-005	0.00000E+000	-1.43000E-001	5.87076E-005	10	...........
	13726	274.54	-1.35088E-001	-9.09701E-006	0.00000E+000	-1.35000E-001	5.89578E-005	10	...........
	13734	274.7	-1.27134E-001	-8.91018E-006	0.00000E+000	-1.27000E-001	6.27942E-005	10	...........
	13742	274.86	-1.19154E-001	-9.09034E-006	0.00000E+000	-1.19000E-001	5.52881E-005	10	...........
	13750	275.02	-1.11121E-001	-8.43810E-006	0.00000E+000	-1.11000E-001	5.07844E-005	10	...........
	13758	275.18	-1.03123E-001	-7.89763E-006	0.00000E+000	-1.03000E-001	5.92080E-005	10	...........
	13766	275.34	-9.51794E-002	-7.46059E-006	0.00000E+000	-9.50000E-002	5.01172E-005	10	...........
	13774	275.5	-8.71499E-002	-7.48728E-006	0.00000E+000	-8.70000E-002	5.70395E-005	10	...........
	13782	275.66	-7.91426E-002	-6.52310E-006	0.00000E+000	-7.90000E-002	5.44541E-005	10	...........
	13790	275.82	-7.11953E-002	-5.61064E-006	0.00000E+000	-7.10000E-002	5.02840E-005	10	...........
	13798	275.98	-6.32230E-002	-6.07605E-006	0.00000E+000	-6.30000E-002	4.17770E-005	10	...........
	13806	276.14	-5.51773E-002	-5.47886E-006	0.00000E+000	-5.50000E-002	5.17018E-005	10	...........
	13814	276.3	-4.71858E-002	-4.98677E-006	0.00000E+000	-4.70000E-002	5.32031E-005	10	...........
	13822	276.46	-3.92203E-002	-5.23031E-006	0.00000E+000	-3.90000E-002	4.67811E-005	10	...........
	13830	276.62	-3.11986E-002	-4.94673E-006	0.00000E+000	-3.10000E-002	4.90330E-005	10	...........
	13838	276.78	-2.32137E-002	-4.35955E-006	0.00000E+000	-2.30000E-002	5.23690E-005	10	...........
	13846	276.94	-1.52382E-002	-3.87580E-006	0.00000E+000	-1.50000E-002	5.07010E-005	10	...........
	13854	277.1	-7.22477E-003	-3.88748E-006	0.00000E+000	-7.00000E-003	4.65309E-005	10	...........
	13862	277.26	6.66688E-004	-4.04428E-006	0.00000E+000	1.00000E-003	5.47043E-005	10	...........
	13870	277.42	8.67474E-003	-3.44042E-006	0.00000E+000	9.00000E-003	5.71229E-005	10	...........
	13878	277.58	1.67327E-002	-3.29529E-006	0.00000E+000	1.70000E-002	4.97002E-005	10	...........
	13886	277.74	2.47377E-002	-3.20688E-006	0.00000E+000	2.50000E-002	4.88662E-005	10	...........
	13894	277.9	3.26873E-002	-2.38450E-006	0.00000E+000	3.30000E-002	5.45375E-005	10	...........
	13902	278.06	4.06675E-002	-2.58468E-006	0.00000E+000	4.10000E-002	5.60387E-005	10	...........
	13910	278.22	4.87114E-002	-2.05922E-006	0.00000E+000	4.90000E-002	5.97084E-005	10	...........
	13918	278.38	5.66857E-002	-1.47371E-006	0.00000E+000	5.70000E-002	5.60387E-005	10	...........
	13926	278.54	6.45855E-002	-1.45536E-006	0.00000E+000	6.50000E-002	6.05424E-005	10	...........
	13934	278.7	7.26997E-002	-8.11465E-007	0.00000E+000	7.30000E-002	5.47877E-005	10	...........
	13942	278.86	8.06656E-002	-7.54749E-007	0.00000E+000	8.10000E-002	5.35367E-005	10	...........
	13950	279.02	8.86256E-002	-5.01195E-007	0.00000E+000	8.90000E-002	5.41205E-005	10	...........
	13958	279.18	9.66458E-002	1.39363E-007	0.00000E+000	9.70000E-002	4.98670E-005	10	...........
	13966	279.34	1.04625E-001	4.99676E-007	0.00000E+000	1.05000E-001	5.77901E-005	10	...........
	13974	279.5	1.12602E-001	7.26541E-007	0.00000E+000	1.13000E-001	5.64557E-005	10	...........
	13982	279.66	1.20639E-001	7.39885E-007	0.00000E+000	1.21000E-001	5.62055E-005	10	...........
	13990	279.82	1.28599E-001	7.53230E-007	0.00000E+000	1.29000E-001	6.03756E-005	10	...........
	13998	279.98	1.36586E-001	1.43382E-006	0.00000E+000	1.37000E-001	6.14598E-005	10	...........
	14000	280.02	1.38570E-001	1.84084E-006	0.00000E+000	1.39000E-001	6.06258E-005	10	...........