Folder: Julia/20191115

File: CVTESTKRISTALL4BOX4.DTA
EXPLAIN
TAG	CV
TITLE	LABEL	CV	Test &Identifier
DATE	LABEL	11/15/2019	Date
TIME	LABEL	10:07:09	Time
NOTES	NOTES	1	&Notes...

PSTAT	PSTAT	REF600-16093	Potentiostat
VINIT	POTEN	0.00000E+000	T	Initial &E (V)
VLIMIT1	POTEN	8.00000E-001	F	Scan Limit &1 (V)
VLIMIT2	POTEN	-6.00000E-001	F	Scan Limit &2 (V)
VFINAL	POTEN	0.00000E+000	T	Final &E (V)
SCANRATE	QUANT	4.99999E+001	&Scan Rate (mV/s)
STEPSIZE	QUANT	1.00000E+000	St&ep Size (mV)
CYCLES	IQUANT	5	C&ycles (#)
IMODE	SELECTOR	1	I/E Range &Mode
IRANGE	QUANT	1.00000E+000	&Max Current (mA)
AREA	QUANT	1.00000E+000	Electrode &Area (cm^2)
ELECTRODETYPE	SELECTOR	0	Electrode Type
STRIPPING	TOGGLE	F	Used for Stripping
POLARITY	TOGGLE	F	Signal Polarity
CONDIT	TWOPARAM	F	1.50000E+001	0.00000E+000	Conditionin&g	Time(s)	E(V)
DELAY	TWOPARAM	T	5.00000E+000	0.00000E+000	Init. De&lay	Time(s)	Stab.(mV/s)
EQDELAY	QUANT	3.00000E+000	Equil. &Time (s)
IRCOMP	SELECTOR	0	IRCom&p
PFCOR	QUANT	0.00000E+000	PF Corr. (ohm)
SAMPLINGMODE	SELECTOR	2	Sampling &Mode
OCVCURVE	TABLE	20
	Pt	T	Vf	Vm	Ach	Over
	#	s	V vs. Ref.	V	V	bits
	0	0.25	1.22654E-001	1.22654E-001	1.26433E-004	...........
	1	0.5	1.22660E-001	1.22970E-001	1.28974E-004	...........
	2	0.75	1.22689E-001	1.22825E-001	1.21641E-004	...........
	3	1	1.22744E-001	1.22821E-001	1.19183E-004	...........
	4	1.25	1.22802E-001	1.22939E-001	1.26308E-004	...........
	5	1.5	1.22842E-001	1.22914E-001	1.24933E-004	...........
	6	1.75	1.22869E-001	1.22834E-001	1.18350E-004	...........
	7	2	1.22881E-001	1.22672E-001	1.22433E-004	...........
	8	2.25	1.22869E-001	1.23091E-001	1.27225E-004	...........
	9	2.5	1.22855E-001	1.22843E-001	1.23766E-004	...........
	10	2.75	1.22859E-001	1.22744E-001	1.36183E-004	...........
	11	3	1.22868E-001	1.22926E-001	1.21516E-004	...........
	12	3.25	1.22864E-001	1.22866E-001	1.23391E-004	...........
	13	3.5	1.22861E-001	1.22973E-001	1.27850E-004	...........
	14	3.75	1.22867E-001	1.22607E-001	1.23016E-004	...........
	15	4	1.22867E-001	1.23011E-001	1.22725E-004	...........
	16	4.25	1.22855E-001	1.22858E-001	1.25433E-004	...........
	17	4.5	1.22849E-001	1.22785E-001	1.20891E-004	...........
	18	4.75	1.22851E-001	1.22805E-001	1.20850E-004	...........
	19	5	1.22842E-001	1.22673E-001	1.25766E-004	...........
EOC	QUANT	0.122842	Open Circuit (V)
PSTATMODEL	IQUANT	4	Pstat Model
PSTATSECTION	LABEL	REF600-16093	Pstat Section
PSTATSERIALNO	LABEL	16093	Pstat Serial Number
CTRLMODE	IQUANT	1	Control Mode
IESTAB	IQUANT	2	I/E Stability
CASPEED	IQUANT	2	Control Amp Speed
CONVENTION	IQUANT	1	Current Convention
ICHRANGE	IQUANT	2	Ich Range
ICHRANGEMODE	TOGGLE	F	Ich Auto Range
ICHOFFSETENABLE	TOGGLE	F	Ich Offset Enable
ICHOFFSET	QUANT	0	Ich Offset (V)
ICHFILTER	IQUANT	2	Ich Filter
VCHRANGE	IQUANT	2	Vch Range
VCHRANGEMODE	TOGGLE	F	Vch Auto Range
VCHOFFSETENABLE	TOGGLE	F	Vch Offset Enable
VCHOFFSET	QUANT	0	Vch Offset (V)
VCHFILTER	IQUANT	2	Vch Filter
ACHRANGE	IQUANT	2	Ach Range
ACHOFFSETENABLE	TOGGLE	F	Ach Offset Enable
ACHOFFSET	QUANT	0	Ach Offset (V)
ACHFILTER	IQUANT	1	Ach Filter
IERANGELOWERLIMIT	IQUANT	1	I/E Range Lower Limit
IERANGEMODE	TOGGLE	F	I/E AutoRange
IERANGE	IQUANT	9	I/E Range
POSFEEDENABLE	TOGGLE	F	Positive Feedback IR Comp
POSFEEDRESISTANCE	QUANT	0	Positive Feedback Resistance (ohm)
ACHSELECT	IQUANT	0	Ach Select
CABLEID	IQUANT	14	Cable ID
DCCALDATE	LABEL	11/5/2019	DC Calibration Date
ACCALDATE	LABEL		AC Calibration Date
THERMOSELECT	IQUANT	1	Thermo Select
FRAMEWORKVERSION	QUANT	6.12	Framework Version
INSTRUMENTVERSION	LABEL	3.11	Instrument Version
CURVE1	TABLE
	Pt	T	Vf	Im	Vu	Sig	Ach	IERange	Over
	#	s	V vs. Ref.	A	V	V	V	#	bits
	0	0.02	1.22466E-001	5.98996E-007	0.00000E+000	1.22850E-001	9.55711E-005	9	...........
	19	0.4	1.41355E-001	1.60304E-006	0.00000E+000	1.41850E-001	1.01576E-004	9	...........
	38	0.78	1.60441E-001	1.81772E-006	0.00000E+000	1.60850E-001	9.29022E-005	9	...........
	57	1.16	1.79437E-001	1.74399E-006	0.00000E+000	1.79850E-001	9.95743E-005	9	...........
	76	1.54	1.98456E-001	1.98103E-006	0.00000E+000	1.98850E-001	9.35694E-005	9	...........
	95	1.92	2.17392E-001	2.60908E-006	0.00000E+000	2.17850E-001	9.59047E-005	9	...........
	114	2.3	2.36363E-001	2.86797E-006	0.00000E+000	2.36850E-001	9.26520E-005	9	...........
	133	2.68	2.55359E-001	3.35356E-006	0.00000E+000	2.55850E-001	1.10917E-004	9	...........
	152	3.06	2.74256E-001	4.10938E-006	0.00000E+000	2.74850E-001	9.64885E-005	9	...........
	171	3.44	2.93313E-001	5.24704E-006	0.00000E+000	2.93850E-001	9.51540E-005	9	...........
	190	3.82	3.12321E-001	6.16668E-006	0.00000E+000	3.12850E-001	9.34860E-005	9	...........
	209	4.2	3.31372E-001	7.53337E-006	0.00000E+000	3.31850E-001	9.60715E-005	9	...........
	228	4.58	3.50343E-001	8.91173E-006	0.00000E+000	3.50850E-001	9.76561E-005	9	...........
	247	4.96	3.69271E-001	1.02834E-005	0.00000E+000	3.69850E-001	9.49039E-005	9	...........
	266	5.34	3.88243E-001	1.23712E-005	0.00000E+000	3.88850E-001	9.49039E-005	9	...........
	285	5.72	4.07254E-001	1.55877E-005	0.00000E+000	4.07850E-001	9.23184E-005	9	...........
	304	6.1	4.26199E-001	2.16989E-005	0.00000E+000	4.26850E-001	9.72391E-005	9	...........
	323	6.48	4.45201E-001	3.22150E-005	0.00000E+000	4.45850E-001	9.54877E-005	9	...........
	342	6.86	4.64217E-001	4.74328E-005	0.00000E+000	4.64850E-001	9.81565E-005	9	...........
	361	7.24	4.83231E-001	6.13040E-005	0.00000E+000	4.83850E-001	9.37362E-005	9	...........
	380	7.62	5.02322E-001	6.63024E-005	0.00000E+000	5.02850E-001	8.88155E-005	9	...........
	399	8	5.21121E-001	6.27745E-005	0.00000E+000	5.21850E-001	8.40616E-005	9	...........
	418	8.38	5.40092E-001	5.59939E-005	0.00000E+000	5.40850E-001	9.23184E-005	9	...........
	437	8.76	5.59044E-001	4.96916E-005	0.00000E+000	5.59850E-001	8.66471E-005	9	...........
	456	9.14	5.78135E-001	4.44068E-005	0.00000E+000	5.78850E-001	8.88989E-005	9	...........
	475	9.52	5.97085E-001	4.07506E-005	0.00000E+000	5.97850E-001	8.85653E-005	9	...........
	494	9.9	6.16069E-001	3.82806E-005	0.00000E+000	6.16850E-001	9.95743E-005	9	...........
	513	10.28	6.35188E-001	3.61601E-005	0.00000E+000	6.35850E-001	9.12342E-005	9	...........
	532	10.66	6.54198E-001	3.43782E-005	0.00000E+000	6.54850E-001	8.86487E-005	9	...........
	551	11.04	6.72996E-001	3.28943E-005	0.00000E+000	6.73850E-001	8.91491E-005	9	...........
	570	11.42	6.91913E-001	3.21276E-005	0.00000E+000	6.92850E-001	9.28188E-005	9	...........
	589	11.8	7.10954E-001	3.15151E-005	0.00000E+000	7.11850E-001	9.55711E-005	9	...........
	608	12.18	7.29911E-001	3.09955E-005	0.00000E+000	7.30850E-001	9.18180E-005	9	...........
	627	12.56	7.48950E-001	3.01767E-005	0.00000E+000	7.49850E-001	9.51540E-005	9	...........
	646	12.94	7.67991E-001	2.97696E-005	0.00000E+000	7.68850E-001	8.44786E-005	9	...........
	665	13.32	7.87107E-001	2.99541E-005	0.00000E+000	7.87850E-001	8.83151E-005	9	...........
	684	13.7	7.92003E-001	2.31276E-005	0.00000E+000	7.92850E-001	8.66471E-005	9	...........
	703	14.08	7.72970E-001	1.53920E-005	0.00000E+000	7.73850E-001	8.77313E-005	9	...........
	722	14.46	7.53940E-001	1.07572E-005	0.00000E+000	7.54850E-001	8.48957E-005	9	...........
	741	14.84	7.34991E-001	7.99193E-006	0.00000E+000	7.35850E-001	9.52374E-005	9	...........
	760	15.22	7.15953E-001	6.02522E-006	0.00000E+000	7.16850E-001	9.05670E-005	9	...........
	779	15.6	6.96971E-001	4.60248E-006	0.00000E+000	6.97850E-001	9.98245E-005	9	...........
	798	15.98	6.77994E-001	3.62930E-006	0.00000E+000	6.78850E-001	9.09840E-005	9	...........
	817	16.36	6.59171E-001	2.62209E-006	0.00000E+000	6.59850E-001	9.30690E-005	9	...........
	836	16.74	6.40050E-001	1.87644E-006	0.00000E+000	6.40850E-001	9.19848E-005	9	...........
	855	17.12	6.21062E-001	1.44323E-006	0.00000E+000	6.21850E-001	9.05670E-005	9	...........
	874	17.5	6.02061E-001	8.02506E-007	0.00000E+000	6.02850E-001	9.14010E-005	9	...........
	893	17.88	5.83048E-001	2.65705E-007	0.00000E+000	5.83850E-001	1.03161E-004	9	...........
	912	18.26	5.64096E-001	3.77803E-007	0.00000E+000	5.64850E-001	9.82399E-005	9	...........
	931	18.64	5.45120E-001	-4.10884E-007	0.00000E+000	5.45850E-001	9.02334E-005	9	...........
	950	19.02	5.26370E-001	-7.00636E-007	0.00000E+000	5.26850E-001	9.17346E-005	9	...........
	969	19.4	5.07220E-001	-1.14502E-006	0.00000E+000	5.07850E-001	8.68139E-005	9	...........
	988	19.78	4.88205E-001	-1.47581E-006	0.00000E+000	4.88850E-001	9.84901E-005	9	...........
	1007	20.16	4.69203E-001	-1.39874E-006	0.00000E+000	4.69850E-001	8.92325E-005	9	...........
	1026	20.54	4.50185E-001	-2.09068E-006	0.00000E+000	4.50850E-001	9.26520E-005	9	...........
	1045	20.92	4.31180E-001	-2.55108E-006	0.00000E+000	4.31850E-001	8.74811E-005	9	...........
	1064	21.3	4.12205E-001	-3.29790E-006	0.00000E+000	4.12850E-001	8.80649E-005	9	...........
	1083	21.68	3.93269E-001	-3.36295E-006	0.00000E+000	3.93850E-001	9.06504E-005	9	...........
	1102	22.06	3.74382E-001	-4.37200E-006	0.00000E+000	3.74850E-001	9.24852E-005	9	...........
	1121	22.44	3.55332E-001	-4.92148E-006	0.00000E+000	3.55850E-001	1.01076E-004	9	...........
	1140	22.82	3.36323E-001	-5.92802E-006	0.00000E+000	3.36850E-001	9.24018E-005	9	...........
	1159	23.2	3.17314E-001	-6.77776E-006	0.00000E+000	3.17850E-001	9.43200E-005	9	...........
	1178	23.58	2.98243E-001	-6.95725E-006	0.00000E+000	2.98850E-001	9.03168E-005	9	...........
	1197	23.96	2.79362E-001	-8.87258E-006	0.00000E+000	2.79850E-001	9.71557E-005	9	...........
	1216	24.34	2.60349E-001	-1.00946E-005	0.00000E+000	2.60850E-001	9.18180E-005	9	...........
	1235	24.72	2.41390E-001	-1.20010E-005	0.00000E+000	2.41850E-001	9.04836E-005	9	...........
	1254	25.1	2.22433E-001	-1.38793E-005	0.00000E+000	2.22850E-001	9.59881E-005	9	...........
	1273	25.48	2.03458E-001	-1.60110E-005	0.00000E+000	2.03850E-001	9.09006E-005	9	...........
	1292	25.86	1.84440E-001	-1.83729E-005	0.00000E+000	1.84850E-001	9.09006E-005	9	...........
	1311	26.24	1.65404E-001	-2.11676E-005	0.00000E+000	1.65850E-001	9.49872E-005	9	...........
	1330	26.62	1.46394E-001	-2.54173E-005	0.00000E+000	1.46850E-001	9.69055E-005	9	...........
	1349	27	1.27482E-001	-2.94283E-005	0.00000E+000	1.27850E-001	8.93159E-005	9	...........
	1368	27.38	1.08494E-001	-3.40660E-005	0.00000E+000	1.08850E-001	9.30690E-005	9	...........
	1387	27.76	8.95424E-002	-3.75012E-005	0.00000E+000	8.98500E-002	8.97329E-005	9	...........
	1406	28.14	7.05629E-002	-4.00320E-005	0.00000E+000	7.08500E-002	9.79063E-005	9	...........
	1425	28.52	5.15405E-002	-4.13449E-005	0.00000E+000	5.18500E-002	8.64803E-005	9	...........
	1444	28.9	3.25270E-002	-4.10311E-005	0.00000E+000	3.28500E-002	8.81483E-005	9	...........
	1463	29.28	1.34601E-002	-4.07724E-005	0.00000E+000	1.38500E-002	9.45702E-005	9	...........
	1482	29.66	-5.36217E-003	-3.88855E-005	0.00000E+000	-5.15000E-003	8.73977E-005	9	...........
	1501	30.04	-2.43326E-002	-3.77212E-005	0.00000E+000	-2.41500E-002	8.58131E-005	9	...........
	1520	30.42	-4.33035E-002	-3.70316E-005	0.00000E+000	-4.31500E-002	8.95661E-005	9	...........
	1539	30.8	-6.23659E-002	-3.69048E-005	0.00000E+000	-6.21500E-002	9.84901E-005	9	...........
	1558	31.18	-8.13027E-002	-3.76888E-005	0.00000E+000	-8.11500E-002	9.49872E-005	9	...........
	1577	31.56	-1.00339E-001	-3.84950E-005	0.00000E+000	-1.00150E-001	9.37362E-005	9	...........
	1596	31.94	-1.19318E-001	-3.92135E-005	0.00000E+000	-1.19150E-001	9.81565E-005	9	...........
	1615	32.32	-1.38314E-001	-3.97198E-005	0.00000E+000	-1.38150E-001	1.00075E-004	9	...........
	1634	32.7	-1.57289E-001	-3.97840E-005	0.00000E+000	-1.57150E-001	8.88155E-005	9	...........
	1653	33.08	-1.76191E-001	-3.99461E-005	0.00000E+000	-1.76150E-001	8.78981E-005	9	...........
	1672	33.46	-1.95255E-001	-3.96120E-005	0.00000E+000	-1.95150E-001	8.89823E-005	9	...........
	1691	33.84	-2.14218E-001	-3.88020E-005	0.00000E+000	-2.14150E-001	1.02660E-004	9	...........
	1710	34.22	-2.33184E-001	-3.83152E-005	0.00000E+000	-2.33150E-001	9.29022E-005	9	...........
	1729	34.6	-2.52217E-001	-3.77472E-005	0.00000E+000	-2.52150E-001	9.54877E-005	9	...........
	1748	34.98	-2.71216E-001	-3.71519E-005	0.00000E+000	-2.71150E-001	1.03077E-004	9	...........
	1767	35.36	-2.90166E-001	-3.68693E-005	0.00000E+000	-2.90150E-001	1.00158E-004	9	...........
	1786	35.74	-3.09130E-001	-3.59575E-005	0.00000E+000	-3.09150E-001	9.36528E-005	9	...........
	1805	36.12	-3.28061E-001	-3.60616E-005	0.00000E+000	-3.28150E-001	9.74059E-005	9	...........
	1824	36.5	-3.47109E-001	-3.56322E-005	0.00000E+000	-3.47150E-001	9.73225E-005	9	...........
	1843	36.88	-3.66092E-001	-3.57403E-005	0.00000E+000	-3.66150E-001	9.07338E-005	9	...........
	1862	37.26	-3.85049E-001	-3.55545E-005	0.00000E+000	-3.85150E-001	9.56545E-005	9	...........
	1881	37.64	-4.04109E-001	-3.56346E-005	0.00000E+000	-4.04150E-001	9.39864E-005	9	...........
	1900	38.02	-4.23055E-001	-3.55715E-005	0.00000E+000	-4.23150E-001	1.11668E-004	9	...........
	1919	38.4	-4.42012E-001	-3.64754E-005	0.00000E+000	-4.42150E-001	1.02577E-004	9	...........
	1938	38.78	-4.60888E-001	-3.75489E-005	0.00000E+000	-4.61150E-001	1.00825E-004	9	...........
	1957	39.16	-4.79991E-001	-3.87986E-005	0.00000E+000	-4.80150E-001	1.00742E-004	9	...........
	1976	39.54	-4.98989E-001	-3.96587E-005	0.00000E+000	-4.99150E-001	1.03578E-004	9	...........
	1995	39.92	-5.17975E-001	-4.06908E-005	0.00000E+000	-5.18150E-001	9.33192E-005	9	...........
	2014	40.3	-5.37001E-001	-4.31785E-005	0.00000E+000	-5.37150E-001	1.02243E-004	9	...........
	2033	40.68	-5.55968E-001	-4.65027E-005	0.00000E+000	-5.56150E-001	1.04495E-004	9	...........
	2052	41.06	-5.74984E-001	-4.90300E-005	0.00000E+000	-5.75150E-001	1.03161E-004	9	...........
	2071	41.44	-5.93762E-001	-5.21539E-005	0.00000E+000	-5.94150E-001	9.24852E-005	9	...........
	2077	41.56	-5.99914E-001	-5.30991E-005	0.00000E+000	-6.00150E-001	1.03494E-004	9	...........
CURVE2	TABLE
	Pt	T	Vf	Im	Vu	Sig	Ach	IERange	Over
	#	s	V vs. Ref.	A	V	V	V	#	bits
	2078	41.58	-5.98712E-001	-4.14014E-005	0.00000E+000	-5.99000E-001	9.77395E-005	9	...........
	2104	42.1	-5.72795E-001	-2.20344E-005	0.00000E+000	-5.73000E-001	9.74893E-005	9	...........
	2130	42.62	-5.46804E-001	-1.77855E-005	0.00000E+000	-5.47000E-001	1.03077E-004	9	...........
	2156	43.14	-5.20924E-001	-1.59512E-005	0.00000E+000	-5.21000E-001	9.50707E-005	9	...........
	2182	43.66	-4.94868E-001	-1.57791E-005	0.00000E+000	-4.95000E-001	9.88237E-005	9	...........
	2208	44.18	-4.68864E-001	-1.50545E-005	0.00000E+000	-4.69000E-001	9.62383E-005	9	...........
	2234	44.7	-4.42861E-001	-1.56316E-005	0.00000E+000	-4.43000E-001	9.99913E-005	9	...........
	2260	45.22	-4.16979E-001	-1.55973E-005	0.00000E+000	-4.17000E-001	1.07497E-004	9	...........
	2286	45.74	-3.90955E-001	-1.51037E-005	0.00000E+000	-3.91000E-001	1.06663E-004	9	...........
	2312	46.26	-3.64848E-001	-1.46057E-005	0.00000E+000	-3.65000E-001	1.00492E-004	9	...........
	2338	46.78	-3.38956E-001	-1.36809E-005	0.00000E+000	-3.39000E-001	1.04078E-004	9	...........
	2364	47.3	-3.13045E-001	-1.27520E-005	0.00000E+000	-3.13000E-001	1.03494E-004	9	...........
	2390	47.82	-2.87033E-001	-1.16670E-005	0.00000E+000	-2.87000E-001	1.11501E-004	9	...........
	2416	48.34	-2.60889E-001	-1.05535E-005	0.00000E+000	-2.61000E-001	1.08081E-004	9	...........
	2442	48.86	-2.35031E-001	-9.58220E-006	0.00000E+000	-2.35000E-001	1.12919E-004	9	...........
	2468	49.38	-2.09061E-001	-8.53279E-006	0.00000E+000	-2.09000E-001	1.02076E-004	9	...........
	2494	49.9	-1.83134E-001	-7.59364E-006	0.00000E+000	-1.83000E-001	1.07497E-004	9	...........
	2520	50.42	-1.57070E-001	-6.58859E-006	0.00000E+000	-1.57000E-001	1.13336E-004	9	...........
	2546	50.94	-1.31115E-001	-5.79357E-006	0.00000E+000	-1.31000E-001	1.13252E-004	9	...........
	2572	51.46	-1.05153E-001	-4.94967E-006	0.00000E+000	-1.05000E-001	1.06747E-004	9	...........
	2598	51.98	-7.92097E-002	-4.24222E-006	0.00000E+000	-7.90000E-002	1.02994E-004	9	...........
	2624	52.5	-5.32193E-002	-3.22116E-006	0.00000E+000	-5.30000E-002	1.10250E-004	9	...........
	2650	53.02	-2.71888E-002	-2.38427E-006	0.00000E+000	-2.70000E-002	1.17672E-004	9	...........
	2676	53.54	-1.22045E-003	-1.61727E-006	0.00000E+000	-9.99995E-004	1.14003E-004	9	...........
	2702	54.06	2.46423E-002	-9.84049E-007	0.00000E+000	2.50000E-002	1.10583E-004	9	...........
	2728	54.58	5.06803E-002	-3.09962E-007	0.00000E+000	5.10000E-002	1.06663E-004	9	...........
	2754	55.1	7.67829E-002	1.93476E-007	0.00000E+000	7.70000E-002	1.05913E-004	9	...........
	2780	55.62	1.02637E-001	6.90909E-007	0.00000E+000	1.03000E-001	1.15087E-004	9	...........
	2806	56.14	1.28581E-001	1.33247E-006	0.00000E+000	1.29000E-001	1.19090E-004	9	...........
	2832	56.66	1.54568E-001	1.65241E-006	0.00000E+000	1.55000E-001	1.26179E-004	9	...........
	2858	57.18	1.80749E-001	2.13583E-006	0.00000E+000	1.81000E-001	1.18173E-004	9	...........
	2884	57.7	2.06544E-001	2.56571E-006	0.00000E+000	2.07000E-001	1.26096E-004	9	...........
	2910	58.22	2.32529E-001	3.21828E-006	0.00000E+000	2.33000E-001	1.12251E-004	9	...........
	2936	58.74	2.58470E-001	3.87134E-006	0.00000E+000	2.59000E-001	1.23010E-004	9	...........
	2962	59.26	2.84566E-001	4.59631E-006	0.00000E+000	2.85000E-001	1.14420E-004	9	...........
	2988	59.78	3.10476E-001	5.36565E-006	0.00000E+000	3.11000E-001	1.21426E-004	9	...........
	3014	60.3	3.36446E-001	6.58821E-006	0.00000E+000	3.37000E-001	1.09833E-004	9	...........
	3040	60.82	3.62378E-001	7.82228E-006	0.00000E+000	3.63000E-001	1.17923E-004	9	...........
[...]
	13383	267.68	-4.93812E-001	-1.59142E-005	0.00000E+000	-4.94000E-001	8.54795E-005	9	...........
	13390	267.82	-4.86776E-001	-1.55092E-005	0.00000E+000	-4.87000E-001	8.08090E-005	9	...........
	13397	267.96	-4.79822E-001	-1.54230E-005	0.00000E+000	-4.80000E-001	8.99832E-005	9	...........
	13404	268.1	-4.72874E-001	-1.46506E-005	0.00000E+000	-4.73000E-001	8.14762E-005	9	...........
	13411	268.24	-4.65677E-001	-1.49070E-005	0.00000E+000	-4.66000E-001	8.40616E-005	9	...........
	13418	268.38	-4.58828E-001	-1.50940E-005	0.00000E+000	-4.59000E-001	8.31442E-005	9	...........
	13425	268.52	-4.51855E-001	-1.52149E-005	0.00000E+000	-4.52000E-001	8.58131E-005	9	...........
	13432	268.66	-4.44786E-001	-1.57631E-005	0.00000E+000	-4.45000E-001	8.54795E-005	9	...........
	13439	268.8	-4.37818E-001	-1.62400E-005	0.00000E+000	-4.38000E-001	7.78065E-005	9	...........
	13446	268.94	-4.30881E-001	-1.52998E-005	0.00000E+000	-4.31000E-001	7.47207E-005	9	...........
	13453	269.08	-4.23872E-001	-1.57431E-005	0.00000E+000	-4.24000E-001	8.02252E-005	9	...........
	13460	269.22	-4.16899E-001	-1.60073E-005	0.00000E+000	-4.17000E-001	7.73061E-005	9	...........
	13467	269.36	-4.09739E-001	-1.66447E-005	0.00000E+000	-4.10000E-001	8.26438E-005	9	...........
	13474	269.5	-4.02905E-001	-1.59357E-005	0.00000E+000	-4.03000E-001	7.33862E-005	9	...........
	13481	269.64	-3.95919E-001	-1.60387E-005	0.00000E+000	-3.96000E-001	8.83985E-005	9	...........
	13488	269.78	-3.88801E-001	-1.60658E-005	0.00000E+000	-3.89000E-001	7.43871E-005	9	...........
	13495	269.92	-3.81882E-001	-1.59537E-005	0.00000E+000	-3.82000E-001	7.90576E-005	9	...........
	13502	270.06	-3.74951E-001	-1.60256E-005	0.00000E+000	-3.75000E-001	7.93912E-005	9	...........
	13509	270.2	-3.67880E-001	-1.59020E-005	0.00000E+000	-3.68000E-001	8.44786E-005	9	...........
	13516	270.34	-3.60962E-001	-1.57838E-005	0.00000E+000	-3.61000E-001	8.11426E-005	9	...........
	13523	270.48	-3.53893E-001	-1.60989E-005	0.00000E+000	-3.54000E-001	7.91409E-005	9	...........
	13530	270.62	-3.46937E-001	-1.57387E-005	0.00000E+000	-3.47000E-001	7.42203E-005	9	...........
	13537	270.76	-3.39933E-001	-1.56879E-005	0.00000E+000	-3.40000E-001	8.30608E-005	9	...........
	13544	270.9	-3.32835E-001	-1.52213E-005	0.00000E+000	-3.33000E-001	7.68057E-005	9	...........
	13551	271.04	-3.25935E-001	-1.51534E-005	0.00000E+000	-3.26000E-001	8.81483E-005	9	...........
	13558	271.18	-3.19008E-001	-1.46871E-005	0.00000E+000	-3.19000E-001	8.08090E-005	9	...........
	13565	271.32	-3.11902E-001	-1.43519E-005	0.00000E+000	-3.12000E-001	8.15596E-005	9	...........
	13572	271.46	-3.05012E-001	-1.44700E-005	0.00000E+000	-3.05000E-001	7.87239E-005	9	...........
	13579	271.6	-2.97988E-001	-1.40968E-005	0.00000E+000	-2.98000E-001	8.12260E-005	9	...........
	13586	271.74	-2.90961E-001	-1.36980E-005	0.00000E+000	-2.91000E-001	8.41450E-005	9	...........
	13593	271.88	-2.83978E-001	-1.35328E-005	0.00000E+000	-2.84000E-001	7.99750E-005	9	...........
	13600	272.02	-2.76916E-001	-1.34606E-005	0.00000E+000	-2.77000E-001	7.72227E-005	9	...........
	13607	272.16	-2.70003E-001	-1.32369E-005	0.00000E+000	-2.70000E-001	7.93078E-005	9	...........
	13614	272.3	-2.63025E-001	-1.29591E-005	0.00000E+000	-2.63000E-001	7.90576E-005	9	...........
	13621	272.44	-2.55975E-001	-1.28969E-005	0.00000E+000	-2.56000E-001	8.04754E-005	9	...........
	13628	272.58	-2.49012E-001	-1.26317E-005	0.00000E+000	-2.49000E-001	8.40616E-005	9	...........
	13635	272.72	-2.41933E-001	-1.20448E-005	0.00000E+000	-2.42000E-001	8.08090E-005	9	...........
	13642	272.86	-2.34986E-001	-1.14502E-005	0.00000E+000	-2.35000E-001	8.61467E-005	9	...........
	13649	273	-2.28045E-001	-1.14140E-005	0.00000E+000	-2.28000E-001	7.77231E-005	9	...........
	13656	273.14	-2.20999E-001	-1.11769E-005	0.00000E+000	-2.21000E-001	8.33110E-005	9	...........
	13663	273.28	-2.14019E-001	-1.09717E-005	0.00000E+000	-2.14000E-001	7.67223E-005	9	...........
	13670	273.42	-2.07030E-001	-1.06368E-005	0.00000E+000	-2.07000E-001	8.48957E-005	9	...........
	13677	273.56	-2.00031E-001	-1.04216E-005	0.00000E+000	-2.00000E-001	7.61385E-005	9	...........
	13684	273.7	-1.93080E-001	-1.02239E-005	0.00000E+000	-1.93000E-001	8.03920E-005	9	...........
	13691	273.84	-1.86075E-001	-9.85394E-006	0.00000E+000	-1.86000E-001	7.73895E-005	9	...........
	13698	273.98	-1.79047E-001	-9.82725E-006	0.00000E+000	-1.79000E-001	8.19766E-005	9	...........
	13705	274.12	-1.72114E-001	-9.42707E-006	0.00000E+000	-1.72000E-001	8.03086E-005	9	...........
	13712	274.26	-1.64965E-001	-9.08427E-006	0.00000E+000	-1.65000E-001	7.64721E-005	9	...........
	13719	274.4	-1.58078E-001	-8.70577E-006	0.00000E+000	-1.58000E-001	7.65555E-005	9	...........
	13726	274.54	-1.51091E-001	-8.44404E-006	0.00000E+000	-1.51000E-001	9.44868E-005	9	...........
	13733	274.68	-1.44069E-001	-8.16814E-006	0.00000E+000	-1.44000E-001	7.89741E-005	9	...........
	13740	274.82	-1.37051E-001	-7.90958E-006	0.00000E+000	-1.37000E-001	8.36446E-005	9	...........
	13747	274.96	-1.30099E-001	-7.63918E-006	0.00000E+000	-1.30000E-001	8.05588E-005	9	...........
	13754	275.1	-1.23081E-001	-7.54293E-006	0.00000E+000	-1.23000E-001	8.48123E-005	9	...........
	13761	275.24	-1.16133E-001	-7.21080E-006	0.00000E+000	-1.16000E-001	8.50625E-005	9	...........
	13768	275.38	-1.08988E-001	-7.00529E-006	0.00000E+000	-1.09000E-001	7.94746E-005	9	...........
	13775	275.52	-1.02151E-001	-6.79377E-006	0.00000E+000	-1.02000E-001	7.93912E-005	9	...........
	13782	275.66	-9.51502E-002	-6.47116E-006	0.00000E+000	-9.50000E-002	8.65637E-005	9	...........
	13789	275.8	-8.80471E-002	-6.37541E-006	0.00000E+000	-8.80000E-002	8.41450E-005	9	...........
	13796	275.94	-8.10870E-002	-5.94020E-006	0.00000E+000	-8.10000E-002	8.26438E-005	9	...........
	13803	276.08	-7.41896E-002	-5.65562E-006	0.00000E+000	-7.40000E-002	8.06422E-005	9	...........
	13810	276.22	-6.71534E-002	-5.39856E-006	0.00000E+000	-6.70000E-002	8.49791E-005	9	...........
	13817	276.36	-6.01999E-002	-5.15551E-006	0.00000E+000	-6.00000E-002	8.63135E-005	9	...........
	13824	276.5	-5.31431E-002	-4.87193E-006	0.00000E+000	-5.30000E-002	8.00584E-005	9	...........
	13831	276.64	-4.61797E-002	-4.49561E-006	0.00000E+000	-4.60000E-002	8.19766E-005	9	...........
	13838	276.78	-3.91830E-002	-4.42054E-006	0.00000E+000	-3.90000E-002	8.54795E-005	9	...........
	13845	276.92	-3.20407E-002	-4.33814E-006	0.00000E+000	-3.20000E-002	7.97248E-005	9	...........
	13852	277.06	-2.51852E-002	-4.12145E-006	0.00000E+000	-2.50000E-002	8.48957E-005	9	...........
	13859	277.2	-1.82164E-002	-3.82769E-006	0.00000E+000	-1.80000E-002	8.87321E-005	9	...........
	13866	277.34	-1.11505E-002	-3.49023E-006	0.00000E+000	-1.10000E-002	8.68973E-005	9	...........
	13873	277.48	-4.21107E-003	-3.25102E-006	0.00000E+000	-3.99999E-003	8.43953E-005	9	...........
	13880	277.62	2.69083E-003	-3.10523E-006	0.00000E+000	3.00001E-003	9.14010E-005	9	...........
	13887	277.76	9.73576E-003	-2.77010E-006	0.00000E+000	1.00000E-002	9.62383E-005	9	...........
	13894	277.9	1.66302E-002	-2.53273E-006	0.00000E+000	1.70000E-002	8.18932E-005	9	...........
	13901	278.04	2.39036E-002	-2.16675E-006	0.00000E+000	2.40000E-002	8.42284E-005	9	...........
	13908	278.18	3.07293E-002	-2.05148E-006	0.00000E+000	3.10000E-002	7.60551E-005	9	...........
	13915	278.32	3.76855E-002	-1.84847E-006	0.00000E+000	3.80000E-002	8.04754E-005	9	...........
	13922	278.46	4.47980E-002	-1.73587E-006	0.00000E+000	4.50000E-002	8.09758E-005	9	...........
	13929	278.6	5.17435E-002	-1.49850E-006	0.00000E+000	5.20000E-002	7.58883E-005	9	...........
	13936	278.74	5.87153E-002	-1.35220E-006	0.00000E+000	5.90000E-002	7.98082E-005	9	...........
	13943	278.88	6.57633E-002	-1.11967E-006	0.00000E+000	6.60000E-002	8.38114E-005	9	...........
	13950	279.02	7.26371E-002	-1.09648E-006	0.00000E+000	7.30000E-002	8.57297E-005	9	...........
	13957	279.16	7.98043E-002	-5.99047E-007	0.00000E+000	8.00000E-002	8.32276E-005	9	...........
	13964	279.3	8.66926E-002	-4.58258E-007	0.00000E+000	8.70000E-002	8.01418E-005	9	...........
	13971	279.44	9.36306E-002	-1.12791E-007	0.00000E+000	9.40000E-002	8.33110E-005	9	...........
	13978	279.58	1.00785E-001	-4.45647E-008	0.00000E+000	1.01000E-001	7.67223E-005	9	...........
	13985	279.72	1.07669E-001	7.07024E-008	0.00000E+000	1.08000E-001	8.14762E-005	9	...........
	13992	279.86	1.14614E-001	1.73458E-007	0.00000E+000	1.15000E-001	8.43118E-005	9	...........
	13999	280	1.21698E-001	3.85143E-007	0.00000E+000	1.22000E-001	8.00584E-005	9	...........
	14000	280.02	1.22673E-001	3.69796E-007	0.00000E+000	1.23000E-001	8.09758E-005	9	...........