Folder: Julia/20191128/Matning2

File: CVTESTKRISTALL2BOX5.DTA
EXPLAIN
TAG	CV
TITLE	LABEL	CV	Test &Identifier
DATE	LABEL	11/28/2019	Date
TIME	LABEL	16:16:03	Time
NOTES	NOTES	1	&Notes...

PSTAT	PSTAT	REF600-16093	Potentiostat
VINIT	POTEN	0.00000E+000	T	Initial &E (V)
VLIMIT1	POTEN	8.00000E-001	F	Scan Limit &1 (V)
VLIMIT2	POTEN	-5.00000E-001	F	Scan Limit &2 (V)
VFINAL	POTEN	0.00000E+000	T	Final &E (V)
SCANRATE	QUANT	4.99999E+001	&Scan Rate (mV/s)
STEPSIZE	QUANT	1.00000E+000	St&ep Size (mV)
CYCLES	IQUANT	5	C&ycles (#)
IMODE	SELECTOR	1	I/E Range &Mode
IRANGE	QUANT	1.50000E+001	&Max Current (mA)
AREA	QUANT	1.00000E+000	Electrode &Area (cm^2)
ELECTRODETYPE	SELECTOR	0	Electrode Type
STRIPPING	TOGGLE	F	Used for Stripping
POLARITY	TOGGLE	F	Signal Polarity
CONDIT	TWOPARAM	F	1.50000E+001	0.00000E+000	Conditionin&g	Time(s)	E(V)
DELAY	TWOPARAM	T	5.00000E+000	0.00000E+000	Init. De&lay	Time(s)	Stab.(mV/s)
EQDELAY	QUANT	3.00000E+000	Equil. &Time (s)
IRCOMP	SELECTOR	0	IRCom&p
PFCOR	QUANT	0.00000E+000	PF Corr. (ohm)
SAMPLINGMODE	SELECTOR	2	Sampling &Mode
OCVCURVE	TABLE	20
	Pt	T	Vf	Vm	Ach	Over
	#	s	V vs. Ref.	V	V	bits
	0	0.25	1.74788E-001	1.74788E-001	1.54016E-004	...........
	1	0.5	1.74787E-001	1.74723E-001	1.56891E-004	...........
	2	0.75	1.74781E-001	1.74782E-001	1.56932E-004	...........
	3	1	1.74774E-001	1.74832E-001	1.55932E-004	...........
	4	1.25	1.74775E-001	1.74873E-001	1.56391E-004	...........
	5	1.5	1.74790E-001	1.74803E-001	1.53099E-004	...........
	6	1.75	1.74810E-001	1.74751E-001	1.59891E-004	...........
	7	2	1.74818E-001	1.74813E-001	1.57432E-004	...........
	8	2.25	1.74809E-001	1.74710E-001	1.54182E-004	...........
	9	2.5	1.74791E-001	1.74787E-001	1.51307E-004	...........
	10	2.75	1.74776E-001	1.74835E-001	1.53891E-004	...........
	11	3	1.74775E-001	1.74871E-001	1.55432E-004	...........
	12	3.25	1.74790E-001	1.74804E-001	1.58099E-004	...........
	13	3.5	1.74811E-001	1.74767E-001	1.57474E-004	...........
	14	3.75	1.74820E-001	1.74798E-001	1.55516E-004	...........
	15	4	1.74811E-001	1.74726E-001	1.58932E-004	...........
	16	4.25	1.74795E-001	1.74794E-001	1.60807E-004	...........
	17	4.5	1.74780E-001	1.74817E-001	1.57432E-004	...........
	18	4.75	1.74777E-001	1.74869E-001	1.56557E-004	...........
	19	5	1.74791E-001	1.74813E-001	1.55557E-004	...........
EOC	QUANT	0.1747906	Open Circuit (V)
PSTATMODEL	IQUANT	4	Pstat Model
PSTATSECTION	LABEL	REF600-16093	Pstat Section
PSTATSERIALNO	LABEL	16093	Pstat Serial Number
CTRLMODE	IQUANT	1	Control Mode
IESTAB	IQUANT	2	I/E Stability
CASPEED	IQUANT	2	Control Amp Speed
CONVENTION	IQUANT	1	Current Convention
ICHRANGE	IQUANT	2	Ich Range
ICHRANGEMODE	TOGGLE	F	Ich Auto Range
ICHOFFSETENABLE	TOGGLE	F	Ich Offset Enable
ICHOFFSET	QUANT	0	Ich Offset (V)
ICHFILTER	IQUANT	2	Ich Filter
VCHRANGE	IQUANT	2	Vch Range
VCHRANGEMODE	TOGGLE	F	Vch Auto Range
VCHOFFSETENABLE	TOGGLE	F	Vch Offset Enable
VCHOFFSET	QUANT	0	Vch Offset (V)
VCHFILTER	IQUANT	2	Vch Filter
ACHRANGE	IQUANT	2	Ach Range
ACHOFFSETENABLE	TOGGLE	F	Ach Offset Enable
ACHOFFSET	QUANT	0	Ach Offset (V)
ACHFILTER	IQUANT	1	Ach Filter
IERANGELOWERLIMIT	IQUANT	1	I/E Range Lower Limit
IERANGEMODE	TOGGLE	F	I/E AutoRange
IERANGE	IQUANT	10	I/E Range
POSFEEDENABLE	TOGGLE	F	Positive Feedback IR Comp
POSFEEDRESISTANCE	QUANT	0	Positive Feedback Resistance (ohm)
ACHSELECT	IQUANT	0	Ach Select
CABLEID	IQUANT	14	Cable ID
DCCALDATE	LABEL	11/5/2019	DC Calibration Date
ACCALDATE	LABEL		AC Calibration Date
THERMOSELECT	IQUANT	1	Thermo Select
FRAMEWORKVERSION	QUANT	6.12	Framework Version
INSTRUMENTVERSION	LABEL	3.11	Instrument Version
EXPERIMENTABORTED	TOGGLE	T	Experiment Aborted
CURVE	TABLE	4741
	Pt	T	Vf	Im	Vu	Sig	Ach	IERange	Over	Cycle
	#	s	V vs. Ref.	A	V	V	V	#	bits	#
	0	0.02	1.74503E-001	4.82344E-006	0.00000E+000	1.74800E-001	7.57215E-005	10	...........	0
	45	0.92	2.19562E-001	6.99200E-006	0.00000E+000	2.19800E-001	7.71393E-005	10	...........	0
	90	1.82	2.64366E-001	8.29980E-006	0.00000E+000	2.64800E-001	7.26356E-005	10	...........	0
	135	2.72	3.09288E-001	1.01714E-005	0.00000E+000	3.09800E-001	7.65555E-005	10	...........	0
	180	3.62	3.54266E-001	1.35877E-005	0.00000E+000	3.54800E-001	7.15514E-005	10	...........	0
	225	4.52	3.99219E-001	2.06556E-005	0.00000E+000	3.99800E-001	7.32194E-005	10	...........	0
	270	5.42	4.44165E-001	3.08294E-005	0.00000E+000	4.44800E-001	8.08090E-005	10	...........	0
	315	6.32	4.89078E-001	4.24695E-005	0.00000E+000	4.89800E-001	7.92243E-005	10	...........	0
	360	7.22	5.34117E-001	5.01029E-005	0.00000E+000	5.34800E-001	8.08924E-005	10	...........	0
	405	8.12	5.79043E-001	5.55159E-005	0.00000E+000	5.79800E-001	7.37198E-005	10	...........	0
	450	9.02	6.23999E-001	6.19865E-005	0.00000E+000	6.24800E-001	6.57133E-005	10	...........	0
	495	9.92	6.69127E-001	7.21254E-005	0.00000E+000	6.69800E-001	7.32194E-005	10	...........	0
	540	10.82	7.13987E-001	7.35066E-005	0.00000E+000	7.14800E-001	6.71311E-005	10	...........	0
	585	11.72	7.58918E-001	7.57635E-005	0.00000E+000	7.59800E-001	7.77231E-005	10	...........	0
	630	12.62	7.93983E-001	6.78567E-005	0.00000E+000	7.94800E-001	7.68891E-005	10	...........	0
	675	13.52	7.48962E-001	2.81671E-005	0.00000E+000	7.49800E-001	7.79733E-005	10	...........	0
	720	14.42	7.03936E-001	1.57496E-005	0.00000E+000	7.04800E-001	7.66389E-005	10	...........	0
	765	15.32	6.58979E-001	9.22561E-006	0.00000E+000	6.59800E-001	8.23936E-005	10	...........	0
	810	16.22	6.14034E-001	6.49990E-006	0.00000E+000	6.14800E-001	7.98916E-005	10	...........	0
	855	17.12	5.69046E-001	4.32301E-006	0.00000E+000	5.69800E-001	7.42203E-005	10	...........	0
	900	18.02	5.24104E-001	2.84672E-006	0.00000E+000	5.24800E-001	7.48875E-005	10	...........	0
	945	18.92	4.79178E-001	1.82416E-006	0.00000E+000	4.79800E-001	7.68891E-005	10	...........	0
	990	19.82	4.34220E-001	8.95021E-007	0.00000E+000	4.34800E-001	8.47289E-005	10	...........	0
	1035	20.72	3.89253E-001	-6.49658E-007	0.00000E+000	3.89800E-001	8.26438E-005	10	...........	0
	1080	21.62	3.44302E-001	-4.25113E-006	0.00000E+000	3.44800E-001	7.59717E-005	10	...........	0
	1125	22.52	2.99380E-001	-5.22364E-006	0.00000E+000	2.99800E-001	7.08842E-005	10	...........	0
	1170	23.42	2.54353E-001	-9.81263E-006	0.00000E+000	2.54800E-001	7.09676E-005	10	...........	0
	1215	24.32	2.09370E-001	-1.51640E-005	0.00000E+000	2.09800E-001	7.91409E-005	10	...........	0
	1260	25.22	1.64415E-001	-2.16146E-005	0.00000E+000	1.64800E-001	7.47207E-005	10	...........	0
	1305	26.12	1.19403E-001	-3.29494E-005	0.00000E+000	1.19800E-001	7.78065E-005	10	...........	0
	1350	27.02	7.45312E-002	-4.67681E-005	0.00000E+000	7.48000E-002	8.06422E-005	10	...........	0
	1395	27.92	2.95708E-002	-6.15977E-005	0.00000E+000	2.98000E-002	7.18016E-005	10	...........	0
	1440	28.82	-1.53930E-002	-7.47725E-005	0.00000E+000	-1.52000E-002	8.35612E-005	10	...........	0
	1485	29.72	-6.03463E-002	-8.04008E-005	0.00000E+000	-6.02000E-002	7.86405E-005	10	...........	0
	1530	30.62	-1.05234E-001	-7.48776E-005	0.00000E+000	-1.05200E-001	7.49709E-005	10	...........	0
	1575	31.52	-1.50195E-001	-6.55545E-005	0.00000E+000	-1.50200E-001	8.21434E-005	10	...........	0
	1620	32.42	-1.95267E-001	-5.93374E-005	0.00000E+000	-1.95200E-001	7.03838E-005	10	...........	0
	1665	33.32	-2.40232E-001	-5.68402E-005	0.00000E+000	-2.40200E-001	8.23936E-005	10	...........	0
	1710	34.22	-2.85173E-001	-5.53273E-005	0.00000E+000	-2.85200E-001	8.71475E-005	10	...........	0
	1755	35.12	-3.30136E-001	-5.36775E-005	0.00000E+000	-3.30200E-001	7.88073E-005	10	...........	0
	1800	36.02	-3.75087E-001	-5.55691E-005	0.00000E+000	-3.75200E-001	8.08924E-005	10	...........	0
	1845	36.92	-4.20036E-001	-6.31257E-005	0.00000E+000	-4.20200E-001	6.80485E-005	10	...........	0
	1890	37.82	-4.64973E-001	-7.72580E-005	0.00000E+000	-4.65200E-001	8.77313E-005	10	...........	0
	1935	38.72	-4.89797E-001	-5.65366E-005	0.00000E+000	-4.90000E-001	7.86405E-005	10	...........	1
	1980	39.62	-4.44791E-001	-3.43623E-005	0.00000E+000	-4.45000E-001	7.18850E-005	10	...........	1
	2025	40.52	-3.99870E-001	-2.82670E-005	0.00000E+000	-4.00000E-001	7.82235E-005	10	...........	1
	2070	41.42	-3.54839E-001	-2.84355E-005	0.00000E+000	-3.55000E-001	8.64803E-005	10	...........	1
	2115	42.32	-3.09929E-001	-2.78967E-005	0.00000E+000	-3.10000E-001	8.18932E-005	10	...........	1
	2160	43.22	-2.64976E-001	-2.51260E-005	0.00000E+000	-2.65000E-001	8.62301E-005	10	...........	1
	2205	44.12	-2.20034E-001	-2.27339E-005	0.00000E+000	-2.20000E-001	7.84737E-005	10	...........	1
	2250	45.02	-1.75061E-001	-2.02951E-005	0.00000E+000	-1.75000E-001	8.54795E-005	10	...........	1
	2295	45.92	-1.30129E-001	-1.72241E-005	0.00000E+000	-1.30000E-001	8.33944E-005	10	...........	1
	2340	46.82	-8.51488E-002	-1.39162E-005	0.00000E+000	-8.50000E-002	8.40616E-005	10	...........	1
	2385	47.72	-4.02157E-002	-1.14040E-005	0.00000E+000	-4.00000E-002	8.21434E-005	10	...........	1
	2430	48.62	4.68998E-003	-7.60405E-006	0.00000E+000	5.00001E-003	7.99750E-005	10	...........	1
	2475	49.52	4.97690E-002	-3.47378E-006	0.00000E+000	5.00000E-002	8.33944E-005	10	...........	1
	2520	50.42	9.47034E-002	4.92842E-008	0.00000E+000	9.50000E-002	7.37198E-005	10	...........	1
	2565	51.32	1.39632E-001	3.24373E-006	0.00000E+000	1.40000E-001	7.83903E-005	10	...........	1
	2610	52.22	1.84604E-001	6.90025E-006	0.00000E+000	1.85000E-001	8.78981E-005	10	...........	1
	2655	53.12	2.29571E-001	1.07870E-005	0.00000E+000	2.30000E-001	7.57215E-005	10	...........	1
	2700	54.02	2.74531E-001	1.42099E-005	0.00000E+000	2.75000E-001	8.78147E-005	10	...........	1
	2745	54.92	3.19443E-001	1.80516E-005	0.00000E+000	3.20000E-001	7.59717E-005	10	...........	1
	2790	55.82	3.64436E-001	2.40418E-005	0.00000E+000	3.65000E-001	8.50625E-005	10	...........	1
	2835	56.72	4.09434E-001	3.91800E-005	0.00000E+000	4.10000E-001	8.82317E-005	10	...........	1
	2880	57.62	4.54406E-001	5.77629E-005	0.00000E+000	4.55000E-001	8.28940E-005	10	...........	1
	2925	58.52	4.99351E-001	6.40033E-005	0.00000E+000	5.00000E-001	8.53961E-005	10	...........	1
	2970	59.42	5.44356E-001	5.95211E-005	0.00000E+000	5.45000E-001	7.78065E-005	10	...........	1
	3015	60.32	5.89243E-001	5.61815E-005	0.00000E+000	5.90000E-001	8.54795E-005	10	...........	1
	3060	61.22	6.34227E-001	5.67587E-005	0.00000E+000	6.35000E-001	9.48205E-005	10	...........	1
	3105	62.12	6.79119E-001	5.85752E-005	0.00000E+000	6.80000E-001	8.03920E-005	10	...........	1
	3150	63.02	7.24126E-001	6.11642E-005	0.00000E+000	7.25000E-001	8.75645E-005	10	...........	1
	3195	63.92	7.69034E-001	6.31893E-005	0.00000E+000	7.70000E-001	8.35612E-005	10	...........	1
	3240	64.82	7.84275E-001	4.43579E-005	0.00000E+000	7.85000E-001	8.75645E-005	10	...........	1
	3285	65.72	7.39131E-001	2.13011E-005	0.00000E+000	7.40000E-001	7.99750E-005	10	...........	1
	3330	66.62	6.94154E-001	1.22249E-005	0.00000E+000	6.95000E-001	8.30608E-005	10	...........	1
	3375	67.52	6.49173E-001	7.74098E-006	0.00000E+000	6.50000E-001	8.03086E-005	10	...........	1
	3420	68.42	6.04209E-001	6.28972E-006	0.00000E+000	6.05000E-001	8.19766E-005	10	...........	1
	3465	69.32	5.59283E-001	3.67077E-006	0.00000E+000	5.60000E-001	7.27190E-005	10	...........	1
	3510	70.22	5.14327E-001	1.85919E-006	0.00000E+000	5.15000E-001	7.86405E-005	10	...........	1
	3555	71.12	4.69371E-001	8.19955E-007	0.00000E+000	4.70000E-001	8.31442E-005	10	...........	1
	3600	72.02	4.24417E-001	-3.52732E-007	0.00000E+000	4.25000E-001	7.55547E-005	10	...........	1
	3645	72.92	3.79582E-001	-2.43621E-006	0.00000E+000	3.80000E-001	7.50543E-005	10	...........	1
	3690	73.82	3.34532E-001	-5.30871E-006	0.00000E+000	3.35000E-001	7.48875E-005	10	...........	1
	3735	74.72	2.89509E-001	-8.32134E-006	0.00000E+000	2.90000E-001	7.46373E-005	10	...........	1
	3780	75.62	2.44518E-001	-1.42648E-005	0.00000E+000	2.45000E-001	8.04754E-005	10	...........	1
	3825	76.52	1.99544E-001	-2.34462E-005	0.00000E+000	2.00000E-001	7.06340E-005	10	...........	1
	3870	77.42	1.54594E-001	-3.66910E-005	0.00000E+000	1.55000E-001	7.50543E-005	10	...........	1
	3915	78.32	1.09662E-001	-5.66501E-005	0.00000E+000	1.10000E-001	6.97166E-005	10	...........	1
	3960	79.22	6.46653E-002	-8.03474E-005	0.00000E+000	6.50000E-002	6.81320E-005	10	...........	1
	4005	80.12	1.97968E-002	-9.10367E-005	0.00000E+000	2.00000E-002	8.08924E-005	10	...........	1
	4050	81.02	-2.51769E-002	-8.49731E-005	0.00000E+000	-2.50000E-002	7.91409E-005	10	...........	1
	4095	81.92	-7.01055E-002	-7.08591E-005	0.00000E+000	-7.00000E-002	7.29692E-005	10	...........	1
	4140	82.82	-1.15126E-001	-5.79862E-005	0.00000E+000	-1.15000E-001	7.24688E-005	10	...........	1
	4185	83.72	-1.60100E-001	-5.10319E-005	0.00000E+000	-1.60000E-001	6.95498E-005	10	...........	1
	4230	84.62	-2.05031E-001	-4.70984E-005	0.00000E+000	-2.05000E-001	7.98082E-005	10	...........	1
	4275	85.52	-2.50019E-001	-4.65213E-005	0.00000E+000	-2.50000E-001	7.37198E-005	10	...........	1
	4320	86.42	-2.94978E-001	-4.48198E-005	0.00000E+000	-2.95000E-001	7.40535E-005	10	...........	1
	4365	87.32	-3.39886E-001	-4.72269E-005	0.00000E+000	-3.40000E-001	6.86324E-005	10	...........	1
	4410	88.22	-3.84847E-001	-5.28701E-005	0.00000E+000	-3.85000E-001	7.44705E-005	10	...........	1
	4455	89.12	-4.29819E-001	-6.15744E-005	0.00000E+000	-4.30000E-001	8.23102E-005	10	...........	1
	4500	90.02	-4.74802E-001	-7.78318E-005	0.00000E+000	-4.75000E-001	7.73895E-005	10	...........	1
	4545	90.92	-4.79749E-001	-3.93083E-005	0.00000E+000	-4.80000E-001	7.92243E-005	10	...........	2
	4590	91.82	-4.34800E-001	-2.69859E-005	0.00000E+000	-4.35000E-001	7.13846E-005	10	...........	2
	4635	92.72	-3.89852E-001	-2.86774E-005	0.00000E+000	-3.90000E-001	8.38948E-005	10	...........	2
	4680	93.62	-3.44962E-001	-2.81152E-005	0.00000E+000	-3.45000E-001	7.30526E-005	10	...........	2
	4725	94.52	-2.99972E-001	-2.61735E-005	0.00000E+000	-3.00000E-001	7.39701E-005	10	...........	2
	4740	94.82	-2.84978E-001	-2.59050E-005	0.00000E+000	-2.85000E-001	7.41369E-005	10	...........	2