Folder: Julia/20191216/Matning 1 skit (part 2)

File: CVTESTKRISTALL5BOX6_3.DTA
EXPLAIN
TAG	CV
TITLE	LABEL	CV	Test &Identifier
DATE	LABEL	12/16/2019	Date
TIME	LABEL	10:51:33	Time
NOTES	NOTES	1	&Notes...

PSTAT	PSTAT	REF600-16093	Potentiostat
VINIT	POTEN	0.00000E+000	T	Initial &E (V)
VLIMIT1	POTEN	8.00000E-001	F	Scan Limit &1 (V)
VLIMIT2	POTEN	-6.00000E-001	F	Scan Limit &2 (V)
VFINAL	POTEN	0.00000E+000	T	Final &E (V)
SCANRATE	QUANT	4.99999E+001	&Scan Rate (mV/s)
STEPSIZE	QUANT	1.00000E+000	St&ep Size (mV)
CYCLES	IQUANT	5	C&ycles (#)
IMODE	SELECTOR	1	I/E Range &Mode
IRANGE	QUANT	1.50000E+001	&Max Current (mA)
AREA	QUANT	1.00000E+000	Electrode &Area (cm^2)
ELECTRODETYPE	SELECTOR	0	Electrode Type
STRIPPING	TOGGLE	F	Used for Stripping
POLARITY	TOGGLE	F	Signal Polarity
CONDIT	TWOPARAM	F	1.50000E+001	0.00000E+000	Conditionin&g	Time(s)	E(V)
DELAY	TWOPARAM	T	5.00000E+000	0.00000E+000	Init. De&lay	Time(s)	Stab.(mV/s)
EQDELAY	QUANT	3.00000E+000	Equil. &Time (s)
IRCOMP	SELECTOR	0	IRCom&p
PFCOR	QUANT	0.00000E+000	PF Corr. (ohm)
SAMPLINGMODE	SELECTOR	2	Sampling &Mode
OCVCURVE	TABLE	20
	Pt	T	Vf	Vm	Ach	Over
	#	s	V vs. Ref.	V	V	bits
	0	0.25	1.62130E-001	1.62130E-001	9.31851E-005	...........
	1	0.5	1.62034E-001	1.57126E-001	8.43102E-005	...........
	2	0.75	1.61535E-001	1.56992E-001	8.98934E-005	...........
	3	1	1.60409E-001	1.56455E-001	9.31017E-005	...........
	4	1.25	1.59194E-001	1.70003E-001	8.91434E-005	...........
	5	1.5	1.59209E-001	1.67145E-001	8.92268E-005	...........
	6	1.75	1.60954E-001	1.58289E-001	9.41850E-005	...........
	7	2	1.62800E-001	1.55434E-001	9.76433E-005	...........
	8	2.25	1.62681E-001	1.54564E-001	9.41850E-005	...........
	9	2.5	1.60371E-001	1.46914E-001	9.87266E-005	...........
	10	2.75	1.57114E-001	1.57530E-001	9.26017E-005	...........
	11	3	1.54143E-001	1.39282E-001	8.87685E-005	...........
	12	3.25	1.51835E-001	1.54619E-001	9.35600E-005	...........
	13	3.5	1.50252E-001	1.55070E-001	8.36435E-005	...........
	14	3.75	1.50118E-001	1.60335E-001	9.19351E-005	...........
	15	4	1.51910E-001	1.59427E-001	9.44350E-005	...........
	16	4.25	1.54632E-001	1.52449E-001	9.09767E-005	...........
	17	4.5	1.56580E-001	1.57071E-001	9.03934E-005	...........
	18	4.75	1.56911E-001	1.50847E-001	9.11851E-005	...........
	19	5	1.56067E-001	1.55445E-001	9.72683E-005	...........
EOC	QUANT	0.156067	Open Circuit (V)
PSTATMODEL	IQUANT	4	Pstat Model
PSTATSECTION	LABEL	REF600-16093	Pstat Section
PSTATSERIALNO	LABEL	16093	Pstat Serial Number
CTRLMODE	IQUANT	1	Control Mode
IESTAB	IQUANT	2	I/E Stability
CASPEED	IQUANT	2	Control Amp Speed
CONVENTION	IQUANT	1	Current Convention
ICHRANGE	IQUANT	2	Ich Range
ICHRANGEMODE	TOGGLE	F	Ich Auto Range
ICHOFFSETENABLE	TOGGLE	F	Ich Offset Enable
ICHOFFSET	QUANT	0	Ich Offset (V)
ICHFILTER	IQUANT	2	Ich Filter
VCHRANGE	IQUANT	2	Vch Range
VCHRANGEMODE	TOGGLE	F	Vch Auto Range
VCHOFFSETENABLE	TOGGLE	F	Vch Offset Enable
VCHOFFSET	QUANT	0	Vch Offset (V)
VCHFILTER	IQUANT	2	Vch Filter
ACHRANGE	IQUANT	2	Ach Range
ACHOFFSETENABLE	TOGGLE	F	Ach Offset Enable
ACHOFFSET	QUANT	0	Ach Offset (V)
ACHFILTER	IQUANT	1	Ach Filter
IERANGELOWERLIMIT	IQUANT	1	I/E Range Lower Limit
IERANGEMODE	TOGGLE	F	I/E AutoRange
IERANGE	IQUANT	10	I/E Range
POSFEEDENABLE	TOGGLE	F	Positive Feedback IR Comp
POSFEEDRESISTANCE	QUANT	0	Positive Feedback Resistance (ohm)
ACHSELECT	IQUANT	0	Ach Select
CABLEID	IQUANT	14	Cable ID
DCCALDATE	LABEL	12/10/2019	DC Calibration Date
ACCALDATE	LABEL	12/10/2019	AC Calibration Date
THERMOSELECT	IQUANT	1	Thermo Select
FRAMEWORKVERSION	QUANT	6.12	Framework Version
INSTRUMENTVERSION	LABEL	3.11	Instrument Version
CURVE1	TABLE
	Pt	T	Vf	Im	Vu	Sig	Ach	IERange	Over
	#	s	V vs. Ref.	A	V	V	V	#	bits
	0	0.02	1.55820E-001	6.04474E-007	0.00000E+000	1.56050E-001	8.97223E-005	10	...........
	9	0.2	1.64791E-001	7.62946E-007	0.00000E+000	1.65050E-001	8.35506E-005	10	...........
	18	0.38	1.73978E-001	2.63124E-006	0.00000E+000	1.74050E-001	8.61361E-005	10	...........
	27	0.56	1.82815E-001	8.79714E-007	0.00000E+000	1.83050E-001	8.65531E-005	10	...........
	36	0.74	1.91800E-001	1.49859E-006	0.00000E+000	1.92050E-001	8.33838E-005	10	...........
	45	0.92	2.00803E-001	5.59435E-007	0.00000E+000	2.01050E-001	9.21410E-005	10	...........
	54	1.1	2.09907E-001	7.27915E-007	0.00000E+000	2.10050E-001	9.12236E-005	10	...........
	63	1.28	2.18695E-001	8.58029E-007	0.00000E+000	2.19050E-001	9.05564E-005	10	...........
	72	1.46	2.27754E-001	1.18164E-006	0.00000E+000	2.28050E-001	9.33086E-005	10	...........
	81	1.64	2.36971E-001	3.30516E-006	0.00000E+000	2.37050E-001	8.57191E-005	10	...........
	90	1.82	2.45718E-001	1.09323E-006	0.00000E+000	2.46050E-001	8.60526E-005	10	...........
	99	2	2.54781E-001	2.03739E-006	0.00000E+000	2.55050E-001	8.39676E-005	10	...........
	108	2.18	2.63721E-001	6.87880E-007	0.00000E+000	2.64050E-001	9.24746E-005	10	...........
	117	2.36	2.72710E-001	1.31509E-006	0.00000E+000	2.73050E-001	9.01393E-005	10	...........
	126	2.54	2.81936E-001	2.18585E-006	0.00000E+000	2.82050E-001	8.46348E-005	10	...........
	135	2.72	2.90671E-001	1.22168E-006	0.00000E+000	2.91050E-001	8.46348E-005	10	...........
	144	2.9	2.99816E-001	3.02325E-006	0.00000E+000	3.00050E-001	8.54688E-005	10	...........
	153	3.08	3.08648E-001	1.14995E-006	0.00000E+000	3.09050E-001	9.15572E-005	10	...........
	162	3.26	3.17704E-001	1.88059E-006	0.00000E+000	3.18050E-001	8.93887E-005	10	...........
	171	3.44	3.26751E-001	9.61452E-007	0.00000E+000	3.27050E-001	8.55522E-005	10	...........
	180	3.62	3.35647E-001	1.18164E-006	0.00000E+000	3.36050E-001	9.15572E-005	10	...........
	189	3.8	3.44812E-001	2.82307E-006	0.00000E+000	3.45050E-001	8.17992E-005	10	...........
	198	3.98	3.53874E-001	1.09157E-006	0.00000E+000	3.54050E-001	8.22162E-005	10	...........
	207	4.16	3.62648E-001	1.59200E-006	0.00000E+000	3.63050E-001	7.96307E-005	10	...........
	216	4.34	3.71608E-001	5.01051E-007	0.00000E+000	3.72050E-001	9.26414E-005	10	...........
	225	4.52	3.80612E-001	8.68037E-007	0.00000E+000	3.81050E-001	9.25580E-005	10	...........
	234	4.7	3.89618E-001	9.83138E-007	0.00000E+000	3.90050E-001	8.37174E-005	10	...........
	243	4.88	3.98741E-001	1.02150E-006	0.00000E+000	3.99050E-001	8.58025E-005	10	...........
	252	5.06	4.07758E-001	2.76802E-006	0.00000E+000	4.08050E-001	8.27166E-005	10	...........
	261	5.24	4.16558E-001	1.10825E-006	0.00000E+000	4.17050E-001	9.42260E-005	10	...........
	270	5.42	4.25610E-001	1.94064E-006	0.00000E+000	4.26050E-001	7.74623E-005	10	...........
	279	5.6	4.34547E-001	7.36256E-007	0.00000E+000	4.35050E-001	8.54688E-005	10	...........
	288	5.78	4.43568E-001	1.14995E-006	0.00000E+000	4.44050E-001	8.52186E-005	10	...........
	297	5.96	4.52523E-001	3.94291E-007	0.00000E+000	4.53050E-001	9.13070E-005	10	...........
	306	6.14	4.61505E-001	8.88055E-007	0.00000E+000	4.62050E-001	8.78875E-005	10	...........
	315	6.32	4.70738E-001	2.90981E-006	0.00000E+000	4.71050E-001	8.84713E-005	10	...........
	324	6.5	4.79436E-001	5.89461E-007	0.00000E+000	4.80050E-001	8.98891E-005	10	...........
	333	6.68	4.88539E-001	2.03072E-006	0.00000E+000	4.89050E-001	8.19660E-005	10	...........
	342	6.86	4.97453E-001	9.48107E-007	0.00000E+000	4.98050E-001	8.47182E-005	10	...........
	351	7.04	5.06480E-001	1.55864E-006	0.00000E+000	5.07050E-001	8.85547E-005	10	...........
	360	7.22	5.15550E-001	1.08656E-006	0.00000E+000	5.16050E-001	7.79627E-005	10	...........
	369	7.4	5.24406E-001	1.43853E-006	0.00000E+000	5.25050E-001	8.50518E-005	10	...........
[...]
	576	11.54	7.31574E-001	3.25845E-006	0.00000E+000	7.32050E-001	7.07068E-005	10	...........
	585	11.72	7.40230E-001	1.06154E-006	0.00000E+000	7.41050E-001	8.07984E-005	10	...........
	594	11.9	7.49299E-001	2.05907E-006	0.00000E+000	7.50050E-001	8.47182E-005	10	...........
	603	12.08	7.58184E-001	8.36343E-007	0.00000E+000	7.59050E-001	8.17158E-005	10	...........
	612	12.26	7.67272E-001	1.05653E-006	0.00000E+000	7.68050E-001	7.82129E-005	10	...........
	621	12.44	7.76394E-001	1.75047E-006	0.00000E+000	7.77050E-001	7.80461E-005	10	...........
	630	12.62	7.85214E-001	1.12493E-006	0.00000E+000	7.86050E-001	9.05564E-005	10	...........
	639	12.8	7.94307E-001	2.64458E-006	0.00000E+000	7.95050E-001	8.02145E-005	10	...........
	648	12.98	7.95408E-001	9.49775E-007	0.00000E+000	7.96050E-001	8.75539E-005	10	...........
	657	13.16	7.86270E-001	1.95398E-006	0.00000E+000	7.87050E-001	7.72955E-005	10	...........
	666	13.34	7.77213E-001	9.13076E-007	0.00000E+000	7.78050E-001	9.12236E-005	10	...........
	675	13.52	7.68363E-001	1.15662E-006	0.00000E+000	7.69050E-001	8.33004E-005	10	...........
	684	13.7	7.59407E-001	3.23009E-006	0.00000E+000	7.60050E-001	7.89635E-005	10	...........
	693	13.88	7.50256E-001	1.45021E-006	0.00000E+000	7.51050E-001	8.74705E-005	10	...........
	702	14.06	7.41342E-001	2.64125E-006	0.00000E+000	7.42050E-001	8.71369E-005	10	...........
	711	14.24	7.32204E-001	6.87880E-007	0.00000E+000	7.33050E-001	8.48016E-005	10	...........
	720	14.42	7.23385E-001	9.68124E-007	0.00000E+000	7.24050E-001	9.33920E-005	10	...........
	729	14.6	7.14319E-001	5.57767E-007	0.00000E+000	7.15050E-001	8.18826E-005	10	...........
	738	14.78	7.05248E-001	1.08656E-006	0.00000E+000	7.06050E-001	8.60526E-005	10	...........
	747	14.96	6.96506E-001	2.61956E-006	0.00000E+000	6.97050E-001	7.74623E-005	10	...........
	756	15.14	6.87348E-001	8.79714E-007	0.00000E+000	6.88050E-001	8.93887E-005	10	...........
	765	15.32	6.78345E-001	1.96566E-006	0.00000E+000	6.79050E-001	7.65449E-005	10	...........
	774	15.5	6.69362E-001	9.91478E-007	0.00000E+000	6.70050E-001	8.93053E-005	10	...........
	783	15.68	6.60332E-001	9.44771E-007	0.00000E+000	6.61050E-001	8.27166E-005	10	...........
	792	15.86	6.51388E-001	8.74710E-007	0.00000E+000	6.52050E-001	8.40510E-005	10	...........
	801	16.04	6.42352E-001	1.10825E-006	0.00000E+000	6.43050E-001	8.28834E-005	10	...........
	810	16.22	6.33580E-001	2.54283E-006	0.00000E+000	6.34050E-001	6.91221E-005	10	...........
	819	16.4	6.24396E-001	9.33094E-007	0.00000E+000	6.25050E-001	8.58025E-005	10	...........
	828	16.58	6.15395E-001	2.30095E-006	0.00000E+000	6.16050E-001	8.28000E-005	10	...........
	837	16.76	6.06411E-001	9.13076E-007	0.00000E+000	6.07050E-001	7.75457E-005	10	...........
	846	16.94	5.97430E-001	1.64872E-006	0.00000E+000	5.98050E-001	8.43846E-005	10	...........
	855	17.12	5.88550E-001	1.92062E-006	0.00000E+000	5.89050E-001	7.17076E-005	10	...........
	864	17.3	5.79567E-001	1.33177E-006	0.00000E+000	5.80050E-001	7.82963E-005	10	...........
	873	17.48	5.70551E-001	2.72465E-006	0.00000E+000	5.71050E-001	7.92971E-005	10	...........
	882	17.66	5.61447E-001	1.11325E-006	0.00000E+000	5.62050E-001	9.19742E-005	10	...........
	891	17.84	5.52473E-001	2.02238E-006	0.00000E+000	5.53050E-001	8.56357E-005	10	...........
	900	18.02	5.43439E-001	8.31339E-007	0.00000E+000	5.44050E-001	8.39676E-005	10	...........
	909	18.2	5.34691E-001	1.37181E-006	0.00000E+000	5.35050E-001	7.46266E-005	10	...........
	918	18.38	5.25613E-001	2.93317E-006	0.00000E+000	5.26050E-001	7.29586E-005	10	...........
	921	18.44	5.22493E-001	9.93146E-007	0.00000E+000	5.23050E-001	8.44680E-005	10	...........