Folder: Julia/20191216/Matning 1 skit

File: CVTESTKRISTALL5BOX6_1.DTA
EXPLAIN
TAG	CV
TITLE	LABEL	CV	Test &Identifier
DATE	LABEL	12/16/2019	Date
TIME	LABEL	10:38:18	Time
NOTES	NOTES	1	&Notes...

PSTAT	PSTAT	REF600-16093	Potentiostat
VINIT	POTEN	0.00000E+000	T	Initial &E (V)
VLIMIT1	POTEN	8.00000E-001	F	Scan Limit &1 (V)
VLIMIT2	POTEN	-5.00000E-001	F	Scan Limit &2 (V)
VFINAL	POTEN	0.00000E+000	T	Final &E (V)
SCANRATE	QUANT	4.99999E+001	&Scan Rate (mV/s)
STEPSIZE	QUANT	1.00000E+000	St&ep Size (mV)
CYCLES	IQUANT	5	C&ycles (#)
IMODE	SELECTOR	1	I/E Range &Mode
IRANGE	QUANT	1.50000E+001	&Max Current (mA)
AREA	QUANT	1.00000E+000	Electrode &Area (cm^2)
ELECTRODETYPE	SELECTOR	0	Electrode Type
STRIPPING	TOGGLE	F	Used for Stripping
POLARITY	TOGGLE	F	Signal Polarity
CONDIT	TWOPARAM	F	1.50000E+001	0.00000E+000	Conditionin&g	Time(s)	E(V)
DELAY	TWOPARAM	T	5.00000E+000	0.00000E+000	Init. De&lay	Time(s)	Stab.(mV/s)
EQDELAY	QUANT	3.00000E+000	Equil. &Time (s)
IRCOMP	SELECTOR	0	IRCom&p
PFCOR	QUANT	0.00000E+000	PF Corr. (ohm)
SAMPLINGMODE	SELECTOR	2	Sampling &Mode
OCVCURVE	TABLE	20
	Pt	T	Vf	Vm	Ach	Over
	#	s	V vs. Ref.	V	V	bits
	0	0.25	8.90616E-002	8.90616E-002	7.12687E-005	...........
	1	0.5	8.93660E-002	1.04998E-001	7.34354E-005	...........
	2	0.75	9.11613E-002	1.16222E-001	6.98521E-005	...........
	3	1	9.61729E-002	1.36381E-001	7.10187E-005	...........
	4	1.25	1.04487E-001	1.05603E-001	6.24355E-005	...........
	5	1.5	1.12431E-001	9.89040E-002	7.02687E-005	...........
	6	1.75	1.15018E-001	9.80219E-002	7.29354E-005	...........
	7	2	1.12345E-001	1.43639E-001	6.36438E-005	...........
	8	2.25	1.10698E-001	1.28927E-001	7.35604E-005	...........
	9	2.5	1.14281E-001	1.08387E-001	7.16021E-005	...........
	10	2.75	1.19173E-001	1.01104E-001	7.00187E-005	...........
	11	3	1.19192E-001	9.71566E-002	7.33520E-005	...........
	12	3.25	1.13890E-001	1.07048E-001	7.08104E-005	...........
	13	3.5	1.07731E-001	1.08673E-001	7.35604E-005	...........
	14	3.75	1.04710E-001	1.16290E-001	7.29770E-005	...........
	15	4	1.05607E-001	1.14542E-001	6.98104E-005	...........
	16	4.25	1.08530E-001	1.04262E-001	7.17687E-005	...........
	17	4.5	1.10567E-001	9.95266E-002	7.24354E-005	...........
	18	4.75	1.09923E-001	1.06860E-001	6.80188E-005	...........
	19	5	1.07677E-001	1.15002E-001	7.18520E-005	...........
EOC	QUANT	0.1076768	Open Circuit (V)
PSTATMODEL	IQUANT	4	Pstat Model
PSTATSECTION	LABEL	REF600-16093	Pstat Section
PSTATSERIALNO	LABEL	16093	Pstat Serial Number
CTRLMODE	IQUANT	1	Control Mode
IESTAB	IQUANT	2	I/E Stability
CASPEED	IQUANT	2	Control Amp Speed
CONVENTION	IQUANT	1	Current Convention
ICHRANGE	IQUANT	2	Ich Range
ICHRANGEMODE	TOGGLE	F	Ich Auto Range
ICHOFFSETENABLE	TOGGLE	F	Ich Offset Enable
ICHOFFSET	QUANT	0	Ich Offset (V)
ICHFILTER	IQUANT	2	Ich Filter
VCHRANGE	IQUANT	2	Vch Range
VCHRANGEMODE	TOGGLE	F	Vch Auto Range
VCHOFFSETENABLE	TOGGLE	F	Vch Offset Enable
VCHOFFSET	QUANT	0	Vch Offset (V)
VCHFILTER	IQUANT	2	Vch Filter
ACHRANGE	IQUANT	2	Ach Range
ACHOFFSETENABLE	TOGGLE	F	Ach Offset Enable
ACHOFFSET	QUANT	0	Ach Offset (V)
ACHFILTER	IQUANT	1	Ach Filter
IERANGELOWERLIMIT	IQUANT	1	I/E Range Lower Limit
IERANGEMODE	TOGGLE	F	I/E AutoRange
IERANGE	IQUANT	10	I/E Range
POSFEEDENABLE	TOGGLE	F	Positive Feedback IR Comp
POSFEEDRESISTANCE	QUANT	0	Positive Feedback Resistance (ohm)
ACHSELECT	IQUANT	0	Ach Select
CABLEID	IQUANT	14	Cable ID
DCCALDATE	LABEL	12/10/2019	DC Calibration Date
ACCALDATE	LABEL	12/10/2019	AC Calibration Date
THERMOSELECT	IQUANT	1	Thermo Select
FRAMEWORKVERSION	QUANT	6.12	Framework Version
INSTRUMENTVERSION	LABEL	3.11	Instrument Version
CURVE1	TABLE
	Pt	T	Vf	Im	Vu	Sig	Ach	IERange	Over
	#	s	V vs. Ref.	A	V	V	V	#	bits
	0	0.02	1.07496E-001	1.94397E-006	0.00000E+000	1.07700E-001	1.00064E-004	10	...........
	19	0.4	1.26379E-001	3.23510E-006	0.00000E+000	1.26700E-001	1.01649E-004	10	...........
	38	0.78	1.45339E-001	3.53369E-006	0.00000E+000	1.45700E-001	1.05152E-004	10	...........
	57	1.16	1.64318E-001	3.70050E-006	0.00000E+000	1.64700E-001	1.01565E-004	10	...........
	76	1.54	1.83320E-001	3.31517E-006	0.00000E+000	1.83700E-001	9.57272E-005	10	...........
	95	1.92	2.02325E-001	4.75642E-006	0.00000E+000	2.02700E-001	9.91467E-005	10	...........
	114	2.3	2.21301E-001	6.32946E-006	0.00000E+000	2.21700E-001	1.08237E-004	10	...........
	133	2.68	2.40325E-001	7.02840E-006	0.00000E+000	2.40700E-001	9.99807E-005	10	...........
	152	3.06	2.59306E-001	8.56140E-006	0.00000E+000	2.59700E-001	9.98139E-005	10	...........
	171	3.44	2.78217E-001	1.11336E-005	0.00000E+000	2.78700E-001	1.03233E-004	10	...........
	190	3.82	2.97138E-001	1.51321E-005	0.00000E+000	2.97700E-001	1.01565E-004	10	...........
	209	4.2	3.16164E-001	2.24368E-005	0.00000E+000	3.16700E-001	9.97305E-005	10	...........
	228	4.58	3.35175E-001	3.17666E-005	0.00000E+000	3.35700E-001	9.55604E-005	10	...........
	247	4.96	3.54199E-001	4.32149E-005	0.00000E+000	3.54700E-001	9.58106E-005	10	...........
	266	5.34	3.73220E-001	5.38091E-005	0.00000E+000	3.73700E-001	1.03150E-004	10	...........
	285	5.72	3.92232E-001	6.46252E-005	0.00000E+000	3.92700E-001	9.01393E-005	10	...........
	304	6.1	4.11104E-001	7.68709E-005	0.00000E+000	4.11700E-001	9.77289E-005	10	...........
	323	6.48	4.30090E-001	9.30783E-005	0.00000E+000	4.30700E-001	1.07153E-004	10	...........
	342	6.86	4.48975E-001	1.15474E-004	0.00000E+000	4.49700E-001	1.01399E-004	10	...........
	361	7.24	4.68070E-001	1.41606E-004	0.00000E+000	4.68700E-001	9.18908E-005	10	...........
	380	7.62	4.87045E-001	1.69700E-004	0.00000E+000	4.87700E-001	9.42260E-005	10	...........
	399	8	5.06035E-001	1.94872E-004	0.00000E+000	5.06700E-001	9.92301E-005	10	...........
	418	8.38	5.25038E-001	2.15068E-004	0.00000E+000	5.25700E-001	9.76455E-005	10	...........
	437	8.76	5.44008E-001	2.27202E-004	0.00000E+000	5.44700E-001	1.00398E-004	10	...........
	456	9.14	5.62997E-001	2.38757E-004	0.00000E+000	5.63700E-001	9.74787E-005	10	...........
	475	9.52	5.81877E-001	2.52569E-004	0.00000E+000	5.82700E-001	1.00648E-004	10	...........
	494	9.9	6.00931E-001	2.73525E-004	0.00000E+000	6.01700E-001	9.48098E-005	10	...........
	513	10.28	6.19916E-001	2.97518E-004	0.00000E+000	6.20700E-001	8.65531E-005	10	...........
	532	10.66	6.38905E-001	3.08633E-004	0.00000E+000	6.39700E-001	9.93135E-005	10	...........
	551	11.04	6.57942E-001	2.96524E-004	0.00000E+000	6.58700E-001	9.49766E-005	10	...........
	570	11.42	6.76846E-001	2.70501E-004	0.00000E+000	6.77700E-001	9.58106E-005	10	...........
	589	11.8	6.95799E-001	2.36927E-004	0.00000E+000	6.96700E-001	9.78123E-005	10	...........
	608	12.18	7.14797E-001	2.07491E-004	0.00000E+000	7.15700E-001	9.83961E-005	10	...........
	627	12.56	7.33749E-001	1.82838E-004	0.00000E+000	7.34700E-001	9.74787E-005	10	...........
	646	12.94	7.52787E-001	1.59511E-004	0.00000E+000	7.53700E-001	9.25580E-005	10	...........
	665	13.32	7.71784E-001	1.41709E-004	0.00000E+000	7.72700E-001	1.02316E-004	10	...........
	684	13.7	7.90787E-001	1.26316E-004	0.00000E+000	7.91700E-001	1.01399E-004	10	...........
	703	14.08	7.87794E-001	9.33102E-005	0.00000E+000	7.88700E-001	9.63944E-005	10	...........
	722	14.46	7.68793E-001	6.86737E-005	0.00000E+000	7.69700E-001	9.28082E-005	10	...........
	741	14.84	7.49766E-001	5.30985E-005	0.00000E+000	7.50700E-001	9.84795E-005	10	...........
	760	15.22	7.30752E-001	4.17803E-005	0.00000E+000	7.31700E-001	9.88131E-005	10	...........
[...]
	12783	255.68	-1.09086E-001	-1.69586E-006	0.00000E+000	-1.09000E-001	5.91140E-005	10	...........
	12789	255.8	-1.02861E-001	-5.18170E-007	0.00000E+000	-1.03000E-001	6.32840E-005	10	...........
	12795	255.92	-9.70791E-002	-1.86101E-006	0.00000E+000	-9.70000E-002	6.26168E-005	10	...........
	12801	256.04	-9.11369E-002	-1.82597E-006	0.00000E+000	-9.10000E-002	5.96144E-005	10	...........
	12807	256.16	-8.50684E-002	-7.33357E-007	0.00000E+000	-8.50000E-002	5.94476E-005	10	...........
	12813	256.28	-7.90703E-002	-1.32554E-006	0.00000E+000	-7.90000E-002	5.52775E-005	10	...........
	12819	256.4	-7.30830E-002	-7.01663E-007	0.00000E+000	-7.30000E-002	6.05318E-005	10	...........
	12825	256.52	-6.70970E-002	-7.06667E-007	0.00000E+000	-6.70000E-002	5.71957E-005	10	...........
	12831	256.64	-6.09267E-002	1.18832E-006	0.00000E+000	-6.10000E-002	5.86969E-005	10	...........
	12837	256.76	-5.51026E-002	6.51182E-007	0.00000E+000	-5.50000E-002	5.88637E-005	10	...........
	12843	256.88	-4.90967E-002	-3.41349E-007	0.00000E+000	-4.90000E-002	6.42014E-005	10	...........
	12849	257	-4.30454E-002	2.44161E-007	0.00000E+000	-4.30000E-002	5.42767E-005	10	...........
	12855	257.12	-3.71649E-002	-1.08533E-006	0.00000E+000	-3.70000E-002	5.39431E-005	10	...........
	12861	257.24	-3.11427E-002	-4.91480E-007	0.00000E+000	-3.10000E-002	5.76127E-005	10	...........
	12867	257.36	-2.50983E-002	-1.21157E-007	0.00000E+000	-2.50000E-002	7.07068E-005	10	...........
	12873	257.48	-1.89391E-002	1.35012E-006	0.00000E+000	-1.90000E-002	7.62947E-005	10	...........
	12879	257.6	-1.31812E-002	-5.04825E-007	0.00000E+000	-1.30000E-002	6.26168E-005	10	...........
	12885	257.72	-7.15008E-003	6.87880E-007	0.00000E+000	-6.99998E-003	6.09488E-005	10	...........
	12891	257.84	-1.09354E-003	4.39864E-008	0.00000E+000	-9.99987E-004	5.94476E-005	10	...........
	12897	257.96	4.76434E-003	-3.54694E-007	0.00000E+000	5.00001E-003	5.45269E-005	10	...........
	12903	258.08	1.07577E-002	4.21929E-006	0.00000E+000	1.10000E-002	5.26086E-005	10	...........
	12909	258.2	1.68293E-002	3.67602E-007	0.00000E+000	1.70000E-002	6.06986E-005	10	...........
	12915	258.32	2.30141E-002	2.15082E-006	0.00000E+000	2.30000E-002	6.83715E-005	10	...........
	12921	258.44	2.88155E-002	-1.16540E-006	0.00000E+000	2.90000E-002	5.63617E-005	10	...........
	12927	258.56	3.47384E-002	3.37575E-007	0.00000E+000	3.50000E-002	6.20330E-005	10	...........
	12933	258.68	4.08293E-002	1.39016E-006	0.00000E+000	4.10000E-002	6.16160E-005	10	...........
	12939	258.8	4.68704E-002	1.14047E-007	0.00000E+000	4.70000E-002	5.92808E-005	10	...........
	12945	258.92	5.28252E-002	4.23184E-008	0.00000E+000	5.30000E-002	5.66119E-005	10	...........
	12951	259.04	5.87025E-002	5.89461E-007	0.00000E+000	5.90000E-002	6.56193E-005	10	...........
	12957	259.16	6.48806E-002	2.57953E-006	0.00000E+000	6.50000E-002	7.05400E-005	10	...........
	12963	259.28	7.08306E-002	7.49601E-007	0.00000E+000	7.10000E-002	6.11156E-005	10	...........
	12969	259.4	7.67709E-002	3.90902E-006	0.00000E+000	7.70000E-002	5.96144E-005	10	...........
	12975	259.52	8.27496E-002	1.93730E-006	0.00000E+000	8.30000E-002	5.87803E-005	10	...........
	12981	259.64	8.87585E-002	1.29508E-006	0.00000E+000	8.90000E-002	6.06152E-005	10	...........
	12987	259.76	9.47615E-002	7.24579E-007	0.00000E+000	9.50000E-002	6.33674E-005	10	...........
	12993	259.88	1.00771E-001	8.89723E-007	0.00000E+000	1.01000E-001	5.87803E-005	10	...........
	12999	260	1.06877E-001	3.13668E-006	0.00000E+000	1.07000E-001	7.62947E-005	10	...........
	13000	260.02	1.07910E-001	3.12000E-006	0.00000E+000	1.08000E-001	6.83715E-005	10	...........

File: CVTESTKRISTALL5BOX6_2.DTA
EXPLAIN
TAG	CV
TITLE	LABEL	CV	Test &Identifier
DATE	LABEL	12/16/2019	Date
TIME	LABEL	10:43:08	Time
NOTES	NOTES	1	&Notes...

PSTAT	PSTAT	REF600-16093	Potentiostat
VINIT	POTEN	0.00000E+000	T	Initial &E (V)
VLIMIT1	POTEN	8.00000E-001	F	Scan Limit &1 (V)
VLIMIT2	POTEN	-5.00000E-001	F	Scan Limit &2 (V)
VFINAL	POTEN	0.00000E+000	T	Final &E (V)
SCANRATE	QUANT	4.99999E+001	&Scan Rate (mV/s)
STEPSIZE	QUANT	1.00000E+000	St&ep Size (mV)
CYCLES	IQUANT	5	C&ycles (#)
IMODE	SELECTOR	1	I/E Range &Mode
IRANGE	QUANT	1.50000E+001	&Max Current (mA)
AREA	QUANT	1.00000E+000	Electrode &Area (cm^2)
ELECTRODETYPE	SELECTOR	0	Electrode Type
STRIPPING	TOGGLE	F	Used for Stripping
POLARITY	TOGGLE	F	Signal Polarity
CONDIT	TWOPARAM	F	1.50000E+001	0.00000E+000	Conditionin&g	Time(s)	E(V)
DELAY	TWOPARAM	T	5.00000E+000	0.00000E+000	Init. De&lay	Time(s)	Stab.(mV/s)
EQDELAY	QUANT	3.00000E+000	Equil. &Time (s)
IRCOMP	SELECTOR	0	IRCom&p
PFCOR	QUANT	0.00000E+000	PF Corr. (ohm)
SAMPLINGMODE	SELECTOR	2	Sampling &Mode
OCVCURVE	TABLE	20
	Pt	T	Vf	Vm	Ach	Over
	#	s	V vs. Ref.	V	V	bits
	0	0.25	2.13197E-001	2.13197E-001	8.63935E-005	...........
	1	0.5	2.13398E-001	2.23756E-001	8.26435E-005	...........
	2	0.75	2.14165E-001	2.09042E-001	8.18519E-005	...........
	3	1	2.15271E-001	2.21499E-001	8.41019E-005	...........
	4	1.25	2.16333E-001	2.28600E-001	8.21019E-005	...........
	5	1.5	2.17732E-001	2.11657E-001	8.05186E-005	...........
	6	1.75	2.18864E-001	2.00571E-001	7.58103E-005	...........
	7	2	2.17466E-001	2.01152E-001	8.38935E-005	...........
	8	2.25	2.13475E-001	2.31346E-001	8.28102E-005	...........
	9	2.5	2.10871E-001	2.24452E-001	8.53102E-005	...........
	10	2.75	2.12736E-001	2.17540E-001	8.32685E-005	...........
	11	3	2.17011E-001	2.18929E-001	8.40185E-005	...........
	12	3.25	2.19824E-001	2.15991E-001	8.27269E-005	...........
	13	3.5	2.20336E-001	2.31165E-001	7.56437E-005	...........
	14	3.75	2.20383E-001	2.18548E-001	8.29352E-005	...........
	15	4	2.21174E-001	2.23140E-001	8.13519E-005	...........
	16	4.25	2.22135E-001	2.23737E-001	8.13102E-005	...........
	17	4.5	2.22363E-001	2.08253E-001	8.08102E-005	...........
	18	4.75	2.21257E-001	2.14344E-001	7.47270E-005	...........
	19	5	2.18783E-001	2.15220E-001	7.96436E-005	...........
EOC	QUANT	0.218783	Open Circuit (V)
PSTATMODEL	IQUANT	4	Pstat Model
PSTATSECTION	LABEL	REF600-16093	Pstat Section
PSTATSERIALNO	LABEL	16093	Pstat Serial Number
CTRLMODE	IQUANT	1	Control Mode
IESTAB	IQUANT	2	I/E Stability
CASPEED	IQUANT	2	Control Amp Speed
CONVENTION	IQUANT	1	Current Convention
ICHRANGE	IQUANT	2	Ich Range
ICHRANGEMODE	TOGGLE	F	Ich Auto Range
ICHOFFSETENABLE	TOGGLE	F	Ich Offset Enable
ICHOFFSET	QUANT	0	Ich Offset (V)
ICHFILTER	IQUANT	2	Ich Filter
VCHRANGE	IQUANT	2	Vch Range
VCHRANGEMODE	TOGGLE	F	Vch Auto Range
VCHOFFSETENABLE	TOGGLE	F	Vch Offset Enable
VCHOFFSET	QUANT	0	Vch Offset (V)
VCHFILTER	IQUANT	2	Vch Filter
ACHRANGE	IQUANT	2	Ach Range
ACHOFFSETENABLE	TOGGLE	F	Ach Offset Enable
ACHOFFSET	QUANT	0	Ach Offset (V)
ACHFILTER	IQUANT	1	Ach Filter
IERANGELOWERLIMIT	IQUANT	1	I/E Range Lower Limit
IERANGEMODE	TOGGLE	F	I/E AutoRange
IERANGE	IQUANT	10	I/E Range
POSFEEDENABLE	TOGGLE	F	Positive Feedback IR Comp
POSFEEDRESISTANCE	QUANT	0	Positive Feedback Resistance (ohm)
ACHSELECT	IQUANT	0	Ach Select
CABLEID	IQUANT	14	Cable ID
DCCALDATE	LABEL	12/10/2019	DC Calibration Date
ACCALDATE	LABEL	12/10/2019	AC Calibration Date
THERMOSELECT	IQUANT	1	Thermo Select
FRAMEWORKVERSION	QUANT	6.12	Framework Version
INSTRUMENTVERSION	LABEL	3.11	Instrument Version
CURVE1	TABLE
	Pt	T	Vf	Im	Vu	Sig	Ach	IERange	Over
	#	s	V vs. Ref.	A	V	V	V	#	bits
	0	0.02	2.18210E-001	4.87653E-006	0.00000E+000	2.18800E-001	7.25416E-005	10	...........
	18	0.38	2.36240E-001	4.48786E-006	0.00000E+000	2.36800E-001	9.06397E-005	10	...........
	36	0.74	2.54235E-001	4.73140E-006	0.00000E+000	2.54800E-001	8.10486E-005	10	...........
	54	1.1	2.72230E-001	4.20594E-006	0.00000E+000	2.72800E-001	8.28000E-005	10	...........
	72	1.46	2.90188E-001	4.28434E-006	0.00000E+000	2.90800E-001	8.57191E-005	10	...........
	90	1.82	3.08249E-001	3.89567E-006	0.00000E+000	3.08800E-001	7.08736E-005	10	...........
	108	2.18	3.26280E-001	4.76476E-006	0.00000E+000	3.26800E-001	7.37926E-005	10	...........
	126	2.54	3.44143E-001	4.44282E-006	0.00000E+000	3.44800E-001	7.92971E-005	10	...........
	144	2.9	3.62138E-001	4.20928E-006	0.00000E+000	3.62800E-001	9.19742E-005	10	...........
	162	3.26	3.80118E-001	4.40945E-006	0.00000E+000	3.80800E-001	8.07150E-005	10	...........
	180	3.62	3.98019E-001	4.08417E-006	0.00000E+000	3.98800E-001	8.51352E-005	10	...........
	198	3.98	4.16111E-001	4.46784E-006	0.00000E+000	4.16800E-001	7.57109E-005	10	...........
	216	4.34	4.34381E-001	5.22183E-006	0.00000E+000	4.34800E-001	7.74623E-005	10	...........
	234	4.7	4.52074E-001	4.60963E-006	0.00000E+000	4.52800E-001	7.65449E-005	10	...........
	252	5.06	4.69995E-001	4.35274E-006	0.00000E+000	4.70800E-001	7.91303E-005	10	...........
	270	5.42	4.88069E-001	4.62631E-006	0.00000E+000	4.88800E-001	8.38008E-005	10	...........
	288	5.78	5.06036E-001	4.30269E-006	0.00000E+000	5.06800E-001	7.82129E-005	10	...........
	306	6.14	5.23927E-001	4.05748E-006	0.00000E+000	5.24800E-001	8.59693E-005	10	...........
	324	6.5	5.41967E-001	3.60375E-006	0.00000E+000	5.42800E-001	8.11320E-005	10	...........
	342	6.86	5.60155E-001	5.07170E-006	0.00000E+000	5.60800E-001	7.78793E-005	10	...........
	360	7.22	5.78011E-001	4.71138E-006	0.00000E+000	5.78800E-001	7.48768E-005	10	...........
	378	7.58	5.95894E-001	4.32104E-006	0.00000E+000	5.96800E-001	7.86299E-005	10	...........
	396	7.94	6.13873E-001	4.80313E-006	0.00000E+000	6.14800E-001	7.72121E-005	10	...........
	414	8.3	6.31836E-001	4.04914E-006	0.00000E+000	6.32800E-001	8.31336E-005	10	...........
	432	8.66	6.49959E-001	4.46117E-006	0.00000E+000	6.50800E-001	8.28834E-005	10	...........
	450	9.02	6.68027E-001	5.29856E-006	0.00000E+000	6.68800E-001	7.35424E-005	10	...........
	468	9.38	6.85830E-001	4.93658E-006	0.00000E+000	6.86800E-001	7.57943E-005	10	...........
	486	9.74	7.03619E-001	4.69971E-006	0.00000E+000	7.04800E-001	7.46266E-005	10	...........
	504	10.1	7.21758E-001	4.61130E-006	0.00000E+000	7.22800E-001	7.64615E-005	10	...........
	522	10.46	7.39772E-001	4.25265E-006	0.00000E+000	7.40800E-001	8.35506E-005	10	...........
	540	10.82	7.57681E-001	4.32438E-006	0.00000E+000	7.58800E-001	7.26250E-005	10	...........
	558	11.18	7.75733E-001	4.51788E-006	0.00000E+000	7.76800E-001	7.40428E-005	10	...........
	576	11.54	7.93955E-001	5.27020E-006	0.00000E+000	7.94800E-001	6.82881E-005	10	...........
	594	11.9	7.85750E-001	4.79479E-006	0.00000E+000	7.86800E-001	7.88801E-005	10	...........
	612	12.26	7.67744E-001	4.75642E-006	0.00000E+000	7.68800E-001	8.08818E-005	10	...........
	630	12.62	7.49697E-001	4.73641E-006	0.00000E+000	7.50800E-001	8.22162E-005	10	...........
	648	12.98	7.31908E-001	4.24598E-006	0.00000E+000	7.32800E-001	8.72203E-005	10	...........
	666	13.34	7.13933E-001	4.34606E-006	0.00000E+000	7.14800E-001	7.56275E-005	10	...........
	684	13.7	6.95994E-001	5.33359E-006	0.00000E+000	6.96800E-001	6.64533E-005	10	...........
	702	14.06	6.77819E-001	4.55458E-006	0.00000E+000	6.78800E-001	7.12072E-005	10	...........
	720	14.42	6.59825E-001	4.37276E-006	0.00000E+000	6.60800E-001	8.10486E-005	10	...........
[...]
	2502	50.06	1.20604E-001	4.50454E-006	0.00000E+000	1.21000E-001	8.13822E-005	10	...........
	2512	50.26	1.30534E-001	4.07750E-006	0.00000E+000	1.31000E-001	7.79627E-005	10	...........
	2522	50.46	1.40479E-001	4.28101E-006	0.00000E+000	1.41000E-001	7.70453E-005	10	...........
	2532	50.66	1.50633E-001	4.17592E-006	0.00000E+000	1.51000E-001	7.22080E-005	10	...........
	2542	50.86	1.60538E-001	4.42613E-006	0.00000E+000	1.61000E-001	8.47182E-005	10	...........
	2552	51.06	1.70684E-001	5.22016E-006	0.00000E+000	1.71000E-001	6.16160E-005	10	...........
	2562	51.26	1.80448E-001	4.37276E-006	0.00000E+000	1.81000E-001	7.80461E-005	10	...........
	2572	51.46	1.90667E-001	5.21349E-006	0.00000E+000	1.91000E-001	6.14492E-005	10	...........
	2582	51.66	2.00517E-001	4.32104E-006	0.00000E+000	2.01000E-001	7.62947E-005	10	...........
	2592	51.86	2.10519E-001	4.97328E-006	0.00000E+000	2.11000E-001	6.94557E-005	10	...........
	2602	52.06	2.20401E-001	4.02579E-006	0.00000E+000	2.21000E-001	7.70453E-005	10	...........
	2612	52.26	2.30595E-001	4.44282E-006	0.00000E+000	2.31000E-001	6.94557E-005	10	...........
	2622	52.46	2.40455E-001	3.17004E-006	0.00000E+000	2.41000E-001	7.97141E-005	10	...........
	2632	52.66	2.50432E-001	4.30603E-006	0.00000E+000	2.51000E-001	6.77877E-005	10	...........
	2642	52.86	2.60409E-001	3.25512E-006	0.00000E+000	2.61000E-001	8.27166E-005	10	...........
	2652	53.06	2.70627E-001	3.78391E-006	0.00000E+000	2.71000E-001	7.20412E-005	10	...........
	2662	53.26	2.80464E-001	3.21008E-006	0.00000E+000	2.81000E-001	7.59611E-005	10	...........
	2672	53.46	2.90392E-001	3.74221E-006	0.00000E+000	2.91000E-001	7.61279E-005	10	...........
	2682	53.66	3.00346E-001	3.52869E-006	0.00000E+000	3.01000E-001	7.69619E-005	10	...........
	2692	53.86	3.10397E-001	4.09752E-006	0.00000E+000	3.11000E-001	7.15408E-005	10	...........
	2702	54.06	3.20491E-001	4.51288E-006	0.00000E+000	3.21000E-001	5.81131E-005	10	...........
	2712	54.26	3.30366E-001	3.94071E-006	0.00000E+000	3.31000E-001	7.43764E-005	10	...........
	2722	54.46	3.40475E-001	4.64633E-006	0.00000E+000	3.41000E-001	5.48605E-005	10	...........
	2732	54.66	3.50308E-001	3.96740E-006	0.00000E+000	3.51000E-001	7.31254E-005	10	...........
	2742	54.86	3.60513E-001	4.08083E-006	0.00000E+000	3.61000E-001	6.62865E-005	10	...........
	2752	55.06	3.58324E-001	3.39190E-006	0.00000E+000	3.59000E-001	7.18744E-005	10	...........
	2762	55.26	3.48359E-001	4.29435E-006	0.00000E+000	3.49000E-001	6.67869E-005	10	...........
	2772	55.46	3.38368E-001	3.94738E-006	0.00000E+000	3.39000E-001	7.87133E-005	10	...........
	2782	55.66	3.28460E-001	4.40445E-006	0.00000E+000	3.29000E-001	6.74541E-005	10	...........
	2792	55.86	3.18312E-001	3.95739E-006	0.00000E+000	3.19000E-001	7.27918E-005	10	...........
	2802	56.06	3.08364E-001	4.39778E-006	0.00000E+000	3.09000E-001	7.14574E-005	10	...........
	2812	56.26	2.98408E-001	3.98742E-006	0.00000E+000	2.99000E-001	7.72955E-005	10	...........
	2822	56.46	2.88457E-001	3.99242E-006	0.00000E+000	2.89000E-001	7.74623E-005	10	...........
	2832	56.66	2.78498E-001	3.94905E-006	0.00000E+000	2.79000E-001	7.46266E-005	10	...........
	2842	56.86	2.68390E-001	3.90568E-006	0.00000E+000	2.69000E-001	7.85465E-005	10	...........
	2852	57.06	2.58459E-001	3.30349E-006	0.00000E+000	2.59000E-001	7.95473E-005	10	...........
	2862	57.26	2.48468E-001	3.88400E-006	0.00000E+000	2.49000E-001	7.94639E-005	10	...........
	2872	57.46	2.38608E-001	3.55538E-006	0.00000E+000	2.39000E-001	6.51189E-005	10	...........
	2876	57.54	2.34452E-001	2.61623E-006	0.00000E+000	2.35000E-001	7.61279E-005	10	...........