Folder: Julia/20191118/legeringsbildning

File: CVTESTKRISTALL5BOX4_1.DTA
EXPLAIN
TAG	CV
TITLE	LABEL	CV	Test &Identifier
DATE	LABEL	11/18/2019	Date
TIME	LABEL	10:20:37	Time
NOTES	NOTES	1	&Notes...

PSTAT	PSTAT	REF600-16093	Potentiostat
VINIT	POTEN	0.00000E+000	T	Initial &E (V)
VLIMIT1	POTEN	8.00000E-001	F	Scan Limit &1 (V)
VLIMIT2	POTEN	-6.00000E-001	F	Scan Limit &2 (V)
VFINAL	POTEN	0.00000E+000	T	Final &E (V)
SCANRATE	QUANT	4.99999E+001	&Scan Rate (mV/s)
STEPSIZE	QUANT	1.00000E+000	St&ep Size (mV)
CYCLES	IQUANT	5	C&ycles (#)
IMODE	SELECTOR	1	I/E Range &Mode
IRANGE	QUANT	1.00000E+000	&Max Current (mA)
AREA	QUANT	1.00000E+000	Electrode &Area (cm^2)
ELECTRODETYPE	SELECTOR	0	Electrode Type
STRIPPING	TOGGLE	F	Used for Stripping
POLARITY	TOGGLE	F	Signal Polarity
CONDIT	TWOPARAM	F	1.50000E+001	0.00000E+000	Conditionin&g	Time(s)	E(V)
DELAY	TWOPARAM	T	5.00000E+000	0.00000E+000	Init. De&lay	Time(s)	Stab.(mV/s)
EQDELAY	QUANT	3.00000E+000	Equil. &Time (s)
IRCOMP	SELECTOR	0	IRCom&p
PFCOR	QUANT	0.00000E+000	PF Corr. (ohm)
SAMPLINGMODE	SELECTOR	2	Sampling &Mode
OCVCURVE	TABLE	20
	Pt	T	Vf	Vm	Ach	Over
	#	s	V vs. Ref.	V	V	bits
	0	0.25	1.44780E-001	1.44780E-001	1.03308E-004	...........
	1	0.5	1.44783E-001	1.44917E-001	1.04017E-004	...........
	2	0.75	1.44796E-001	1.44893E-001	1.01642E-004	...........
	3	1	1.44823E-001	1.44842E-001	9.98916E-005	...........
	4	1.25	1.44850E-001	1.44835E-001	1.05517E-004	...........
	5	1.5	1.44865E-001	1.45003E-001	1.07392E-004	...........
	6	1.75	1.44871E-001	1.44655E-001	1.10183E-004	...........
	7	2	1.44868E-001	1.44917E-001	1.05517E-004	...........
	8	2.25	1.44857E-001	1.44946E-001	1.04267E-004	...........
	9	2.5	1.44850E-001	1.44722E-001	1.06308E-004	...........
	10	2.75	1.44854E-001	1.44997E-001	1.09850E-004	...........
	11	3	1.44860E-001	1.44846E-001	1.08683E-004	...........
	12	3.25	1.44868E-001	1.44846E-001	1.07433E-004	...........
	13	3.5	1.44873E-001	1.44805E-001	1.13225E-004	...........
	14	3.75	1.44867E-001	1.44908E-001	1.11808E-004	...........
	15	4	1.44855E-001	1.44724E-001	1.06600E-004	...........
	16	4.25	1.44841E-001	1.44826E-001	1.10433E-004	...........
	17	4.5	1.44829E-001	1.44991E-001	1.07933E-004	...........
	18	4.75	1.44828E-001	1.44724E-001	1.04267E-004	...........
	19	5	1.44840E-001	1.44920E-001	1.02100E-004	...........
EOC	QUANT	0.1448397	Open Circuit (V)
PSTATMODEL	IQUANT	4	Pstat Model
PSTATSECTION	LABEL	REF600-16093	Pstat Section
PSTATSERIALNO	LABEL	16093	Pstat Serial Number
CTRLMODE	IQUANT	1	Control Mode
IESTAB	IQUANT	2	I/E Stability
CASPEED	IQUANT	2	Control Amp Speed
CONVENTION	IQUANT	1	Current Convention
ICHRANGE	IQUANT	2	Ich Range
ICHRANGEMODE	TOGGLE	F	Ich Auto Range
ICHOFFSETENABLE	TOGGLE	F	Ich Offset Enable
ICHOFFSET	QUANT	0	Ich Offset (V)
ICHFILTER	IQUANT	2	Ich Filter
VCHRANGE	IQUANT	2	Vch Range
VCHRANGEMODE	TOGGLE	F	Vch Auto Range
VCHOFFSETENABLE	TOGGLE	F	Vch Offset Enable
VCHOFFSET	QUANT	0	Vch Offset (V)
VCHFILTER	IQUANT	2	Vch Filter
ACHRANGE	IQUANT	2	Ach Range
ACHOFFSETENABLE	TOGGLE	F	Ach Offset Enable
ACHOFFSET	QUANT	0	Ach Offset (V)
ACHFILTER	IQUANT	1	Ach Filter
IERANGELOWERLIMIT	IQUANT	1	I/E Range Lower Limit
IERANGEMODE	TOGGLE	F	I/E AutoRange
IERANGE	IQUANT	9	I/E Range
POSFEEDENABLE	TOGGLE	F	Positive Feedback IR Comp
POSFEEDRESISTANCE	QUANT	0	Positive Feedback Resistance (ohm)
ACHSELECT	IQUANT	0	Ach Select
CABLEID	IQUANT	14	Cable ID
DCCALDATE	LABEL	11/5/2019	DC Calibration Date
ACCALDATE	LABEL		AC Calibration Date
THERMOSELECT	IQUANT	1	Thermo Select
FRAMEWORKVERSION	QUANT	6.12	Framework Version
INSTRUMENTVERSION	LABEL	3.11	Instrument Version
CURVE1	TABLE
	Pt	T	Vf	Im	Vu	Sig	Ach	IERange	Over
	#	s	V vs. Ref.	A	V	V	V	#	bits
	0	0.02	1.44577E-001	4.40524E-007	0.00000E+000	1.44850E-001	1.13252E-004	9	...........
	19	0.4	1.63530E-001	1.60470E-006	0.00000E+000	1.63850E-001	1.13502E-004	9	...........
	38	0.78	1.82553E-001	1.83340E-006	0.00000E+000	1.82850E-001	1.20675E-004	9	...........
	57	1.16	2.01582E-001	2.01823E-006	0.00000E+000	2.01850E-001	1.11084E-004	9	...........
	76	1.54	2.20617E-001	2.00305E-006	0.00000E+000	2.20850E-001	1.11334E-004	9	...........
	95	1.92	2.39402E-001	1.93649E-006	0.00000E+000	2.39850E-001	1.09499E-004	9	...........
	114	2.3	2.58394E-001	2.28596E-006	0.00000E+000	2.58850E-001	1.09916E-004	9	...........
	133	2.68	2.77398E-001	2.52884E-006	0.00000E+000	2.77850E-001	1.08498E-004	9	...........
	152	3.06	2.96404E-001	2.95038E-006	0.00000E+000	2.96850E-001	1.01409E-004	9	...........
	171	3.44	3.15383E-001	3.40344E-006	0.00000E+000	3.15850E-001	1.13919E-004	9	...........
	190	3.82	3.34405E-001	3.69519E-006	0.00000E+000	3.34850E-001	1.14003E-004	9	...........
	209	4.2	3.53547E-001	4.13190E-006	0.00000E+000	3.53850E-001	1.07331E-004	9	...........
	228	4.58	3.72512E-001	4.82651E-006	0.00000E+000	3.72850E-001	1.10417E-004	9	...........
	247	4.96	3.91321E-001	5.72563E-006	0.00000E+000	3.91850E-001	1.23928E-004	9	...........
	266	5.34	4.10213E-001	6.77471E-006	0.00000E+000	4.10850E-001	1.13836E-004	9	...........
	285	5.72	4.29310E-001	8.07500E-006	0.00000E+000	4.29850E-001	1.12919E-004	9	...........
	304	6.1	4.48243E-001	9.56113E-006	0.00000E+000	4.48850E-001	1.16838E-004	9	...........
	323	6.48	4.67284E-001	1.12012E-005	0.00000E+000	4.67850E-001	1.17756E-004	9	...........
	342	6.86	4.86370E-001	1.35443E-005	0.00000E+000	4.86850E-001	1.16004E-004	9	...........
	361	7.24	5.05312E-001	1.59794E-005	0.00000E+000	5.05850E-001	1.09499E-004	9	...........
	380	7.62	5.24152E-001	1.85943E-005	0.00000E+000	5.24850E-001	1.11668E-004	9	...........
	399	8	5.43138E-001	2.14021E-005	0.00000E+000	5.43850E-001	1.06413E-004	9	...........
	418	8.38	5.62181E-001	2.45772E-005	0.00000E+000	5.62850E-001	1.09499E-004	9	...........
	437	8.76	5.81181E-001	2.62740E-005	0.00000E+000	5.81850E-001	1.09332E-004	9	...........
	456	9.14	6.00126E-001	2.77656E-005	0.00000E+000	6.00850E-001	1.15337E-004	9	...........
	475	9.52	6.19162E-001	3.07102E-005	0.00000E+000	6.19850E-001	1.17089E-004	9	...........
	494	9.9	6.38231E-001	3.20407E-005	0.00000E+000	6.38850E-001	1.14003E-004	9	...........
	513	10.28	6.57059E-001	3.45107E-005	0.00000E+000	6.57850E-001	1.11251E-004	9	...........
	532	10.66	6.76052E-001	3.61676E-005	0.00000E+000	6.76850E-001	1.11751E-004	9	...........
	551	11.04	6.95010E-001	3.79223E-005	0.00000E+000	6.95850E-001	1.11501E-004	9	...........
	570	11.42	7.14094E-001	4.11690E-005	0.00000E+000	7.14850E-001	1.06830E-004	9	...........
	589	11.8	7.33058E-001	4.26861E-005	0.00000E+000	7.33850E-001	1.10333E-004	9	...........
	608	12.18	7.52004E-001	4.60759E-005	0.00000E+000	7.52850E-001	1.10083E-004	9	...........
	627	12.56	7.71125E-001	4.88649E-005	0.00000E+000	7.71850E-001	1.12752E-004	9	...........
	646	12.94	7.89990E-001	5.34295E-005	0.00000E+000	7.90850E-001	1.02243E-004	9	...........
	665	13.32	7.89048E-001	3.83297E-005	0.00000E+000	7.89850E-001	1.09749E-004	9	...........
	684	13.7	7.70035E-001	2.38159E-005	0.00000E+000	7.70850E-001	1.05329E-004	9	...........
	703	14.08	7.50986E-001	1.56896E-005	0.00000E+000	7.51850E-001	1.12085E-004	9	...........
	722	14.46	7.31942E-001	1.09739E-005	0.00000E+000	7.32850E-001	1.09499E-004	9	...........
	741	14.84	7.13045E-001	7.74605E-006	0.00000E+000	7.13850E-001	1.10250E-004	9	...........
	760	15.22	6.94132E-001	5.62020E-006	0.00000E+000	6.94850E-001	1.06914E-004	9	...........
	779	15.6	6.75138E-001	3.97360E-006	0.00000E+000	6.75850E-001	1.08248E-004	9	...........
	798	15.98	6.56125E-001	2.67614E-006	0.00000E+000	6.56850E-001	1.15504E-004	9	...........
	817	16.36	6.37161E-001	1.94967E-006	0.00000E+000	6.37850E-001	1.15254E-004	9	...........
	836	16.74	6.18144E-001	1.13930E-006	0.00000E+000	6.18850E-001	1.09583E-004	9	...........
	855	17.12	5.99134E-001	7.19601E-007	0.00000E+000	5.99850E-001	1.16004E-004	9	...........
	874	17.5	5.80182E-001	-7.32563E-008	0.00000E+000	5.80850E-001	1.14086E-004	9	...........
	893	17.88	5.61185E-001	-4.29733E-007	0.00000E+000	5.61850E-001	1.15170E-004	9	...........
	912	18.26	5.42316E-001	-5.30488E-007	0.00000E+000	5.42850E-001	1.12251E-004	9	...........
	931	18.64	5.23214E-001	-1.28047E-006	0.00000E+000	5.23850E-001	1.10083E-004	9	...........
	950	19.02	5.04255E-001	-1.78274E-006	0.00000E+000	5.04850E-001	1.22510E-004	9	...........
	969	19.4	4.85312E-001	-2.15891E-006	0.00000E+000	4.85850E-001	1.09749E-004	9	...........
	988	19.78	4.66230E-001	-2.37409E-006	0.00000E+000	4.66850E-001	1.14420E-004	9	...........
	1007	20.16	4.47243E-001	-2.97128E-006	0.00000E+000	4.47850E-001	1.20925E-004	9	...........
	1026	20.54	4.28291E-001	-3.31641E-006	0.00000E+000	4.28850E-001	1.12585E-004	9	...........
	1045	20.92	4.09441E-001	-3.43468E-006	0.00000E+000	4.09850E-001	1.10917E-004	9	...........
	1064	21.3	3.90381E-001	-4.09426E-006	0.00000E+000	3.90850E-001	1.10917E-004	9	...........
	1083	21.68	3.71359E-001	-4.48827E-006	0.00000E+000	3.71850E-001	1.25679E-004	9	...........
	1102	22.06	3.52366E-001	-5.09546E-006	0.00000E+000	3.52850E-001	1.17089E-004	9	...........
	1121	22.44	3.33372E-001	-5.56404E-006	0.00000E+000	3.33850E-001	1.18840E-004	9	...........
	1140	22.82	3.14344E-001	-5.81826E-006	0.00000E+000	3.14850E-001	1.23844E-004	9	...........
	1159	23.2	2.95362E-001	-6.71704E-006	0.00000E+000	2.95850E-001	1.18089E-004	9	...........
	1178	23.58	2.76564E-001	-7.44000E-006	0.00000E+000	2.76850E-001	1.13085E-004	9	...........
	1197	23.96	2.57570E-001	-8.23953E-006	0.00000E+000	2.57850E-001	1.11251E-004	9	...........
	1216	24.34	2.38459E-001	-9.02705E-006	0.00000E+000	2.38850E-001	1.14003E-004	9	...........
	1235	24.72	2.19482E-001	-9.62007E-006	0.00000E+000	2.19850E-001	1.13919E-004	9	...........
	1254	25.1	2.00528E-001	-1.05514E-005	0.00000E+000	2.00850E-001	1.09166E-004	9	...........
	1273	25.48	1.81446E-001	-1.15346E-005	0.00000E+000	1.81850E-001	1.06747E-004	9	...........
	1292	25.86	1.62499E-001	-1.19933E-005	0.00000E+000	1.62850E-001	1.18089E-004	9	...........
	1311	26.24	1.43513E-001	-1.29595E-005	0.00000E+000	1.43850E-001	1.14920E-004	9	...........
	1330	26.62	1.24699E-001	-1.54822E-005	0.00000E+000	1.24850E-001	1.14920E-004	9	...........
	1349	27	1.05595E-001	-1.67371E-005	0.00000E+000	1.05850E-001	1.19507E-004	9	...........
	1368	27.38	8.65776E-002	-1.98330E-005	0.00000E+000	8.68500E-002	1.13586E-004	9	...........
	1387	27.76	6.76273E-002	-2.03236E-005	0.00000E+000	6.78500E-002	1.08832E-004	9	...........
	1406	28.14	4.86018E-002	-2.26758E-005	0.00000E+000	4.88500E-002	1.11584E-004	9	...........
	1425	28.52	2.95740E-002	-2.67783E-005	0.00000E+000	2.98500E-002	1.12668E-004	9	...........
	1444	28.9	1.05924E-002	-2.81354E-005	0.00000E+000	1.08500E-002	1.11918E-004	9	...........
	1463	29.28	-8.25604E-003	-3.12984E-005	0.00000E+000	-8.15000E-003	1.10000E-004	9	...........
	1482	29.66	-2.72402E-002	-3.27339E-005	0.00000E+000	-2.71500E-002	1.13169E-004	9	...........
	1501	30.04	-4.62580E-002	-3.46462E-005	0.00000E+000	-4.61500E-002	1.19341E-004	9	...........
	1520	30.42	-6.52710E-002	-3.72465E-005	0.00000E+000	-6.51500E-002	1.10333E-004	9	...........
	1539	30.8	-8.42376E-002	-4.00462E-005	0.00000E+000	-8.41500E-002	1.17756E-004	9	...........
	1558	31.18	-1.03246E-001	-4.28256E-005	0.00000E+000	-1.03150E-001	1.12502E-004	9	...........
	1577	31.56	-1.22242E-001	-4.60690E-005	0.00000E+000	-1.22150E-001	1.23928E-004	9	...........
	1596	31.94	-1.41210E-001	-4.80680E-005	0.00000E+000	-1.41150E-001	1.10917E-004	9	...........
	1615	32.32	-1.60079E-001	-5.03123E-005	0.00000E+000	-1.60150E-001	1.12418E-004	9	...........
	1634	32.7	-1.79180E-001	-5.13489E-005	0.00000E+000	-1.79150E-001	1.20425E-004	9	...........
	1653	33.08	-1.98174E-001	-5.22785E-005	0.00000E+000	-1.98150E-001	1.13169E-004	9	...........
	1672	33.46	-2.17167E-001	-5.25459E-005	0.00000E+000	-2.17150E-001	1.21092E-004	9	...........
	1691	33.84	-2.36157E-001	-5.21739E-005	0.00000E+000	-2.36150E-001	1.15921E-004	9	...........
	1710	34.22	-2.55127E-001	-5.15669E-005	0.00000E+000	-2.55150E-001	1.17422E-004	9	...........
	1729	34.6	-2.74095E-001	-5.07774E-005	0.00000E+000	-2.74150E-001	1.10083E-004	9	...........
	1748	34.98	-2.92895E-001	-4.96584E-005	0.00000E+000	-2.93150E-001	1.14003E-004	9	...........
	1767	35.36	-3.12002E-001	-4.93802E-005	0.00000E+000	-3.12150E-001	1.15671E-004	9	...........
	1786	35.74	-3.31020E-001	-4.86749E-005	0.00000E+000	-3.31150E-001	1.18340E-004	9	...........
	1805	36.12	-3.50013E-001	-4.85440E-005	0.00000E+000	-3.50150E-001	1.11084E-004	9	...........
	1824	36.5	-3.69032E-001	-4.81940E-005	0.00000E+000	-3.69150E-001	1.16838E-004	9	...........
	1843	36.88	-3.87993E-001	-4.82804E-005	0.00000E+000	-3.88150E-001	1.16004E-004	9	...........
	1862	37.26	-4.06993E-001	-4.97945E-005	0.00000E+000	-4.07150E-001	1.14336E-004	9	...........
	1881	37.64	-4.25945E-001	-5.12043E-005	0.00000E+000	-4.26150E-001	1.10083E-004	9	...........
	1900	38.02	-4.44840E-001	-5.35226E-005	0.00000E+000	-4.45150E-001	1.11751E-004	9	...........
	1919	38.4	-4.63893E-001	-5.67519E-005	0.00000E+000	-4.64150E-001	1.18089E-004	9	...........
	1938	38.78	-4.82894E-001	-6.09319E-005	0.00000E+000	-4.83150E-001	1.15254E-004	9	...........
	1957	39.16	-5.01899E-001	-6.67053E-005	0.00000E+000	-5.02150E-001	1.17506E-004	9	...........
	1976	39.54	-5.20937E-001	-7.55116E-005	0.00000E+000	-5.21150E-001	1.26096E-004	9	...........
	1995	39.92	-5.39838E-001	-8.28478E-005	0.00000E+000	-5.40150E-001	1.22510E-004	9	...........
	2014	40.3	-5.58850E-001	-9.68098E-005	0.00000E+000	-5.59150E-001	1.12168E-004	9	...........
	2033	40.68	-5.77836E-001	-1.06768E-004	0.00000E+000	-5.78150E-001	1.19174E-004	9	...........
	2052	41.06	-5.96760E-001	-1.22582E-004	0.00000E+000	-5.97150E-001	1.14420E-004	9	...........
	2055	41.12	-5.99786E-001	-1.14019E-004	0.00000E+000	-6.00150E-001	1.17756E-004	9	...........
CURVE2	TABLE
	Pt	T	Vf	Im	Vu	Sig	Ach	IERange	Over
	#	s	V vs. Ref.	A	V	V	V	#	bits
	2056	41.14	-5.98559E-001	-8.22967E-005	0.00000E+000	-5.99000E-001	1.17672E-004	9	...........
	2082	41.66	-5.72677E-001	-3.53418E-005	0.00000E+000	-5.73000E-001	1.19758E-004	9	...........
	2108	42.18	-5.46679E-001	-2.10458E-005	0.00000E+000	-5.47000E-001	1.14503E-004	9	...........
	2134	42.7	-5.20771E-001	-1.61609E-005	0.00000E+000	-5.21000E-001	1.20425E-004	9	...........
	2160	43.22	-4.94710E-001	-1.54575E-005	0.00000E+000	-4.95000E-001	1.17172E-004	9	...........
	2186	43.74	-4.68803E-001	-9.87996E-006	0.00000E+000	-4.69000E-001	1.17756E-004	9	...........
	2212	44.26	-4.42768E-001	-1.30172E-005	0.00000E+000	-4.43000E-001	1.11000E-004	9	...........
	2238	44.78	-4.16853E-001	-1.38818E-005	0.00000E+000	-4.17000E-001	1.13919E-004	9	...........
	2264	45.3	-3.90821E-001	-1.62387E-005	0.00000E+000	-3.91000E-001	1.12502E-004	9	...........
	2290	45.82	-3.64822E-001	-1.80898E-005	0.00000E+000	-3.65000E-001	1.17672E-004	9	...........
	2316	46.34	-3.38870E-001	-1.78609E-005	0.00000E+000	-3.39000E-001	1.13836E-004	9	...........
	2342	46.86	-3.12964E-001	-1.89891E-005	0.00000E+000	-3.13000E-001	1.18256E-004	9	...........
	2368	47.38	-2.86919E-001	-1.88791E-005	0.00000E+000	-2.87000E-001	1.11918E-004	9	...........
	2394	47.9	-2.60852E-001	-1.84694E-005	0.00000E+000	-2.61000E-001	1.11251E-004	9	...........
	2420	48.42	-2.34943E-001	-1.76140E-005	0.00000E+000	-2.35000E-001	1.22093E-004	9	...........
	2446	48.94	-2.09024E-001	-1.57377E-005	0.00000E+000	-2.09000E-001	1.18006E-004	9	...........
	2472	49.46	-1.83030E-001	-1.64584E-005	0.00000E+000	-1.83000E-001	1.18006E-004	9	...........
	2498	49.98	-1.56921E-001	-1.58512E-005	0.00000E+000	-1.57000E-001	1.14920E-004	9	...........
	2524	50.5	-1.31027E-001	-1.48593E-005	0.00000E+000	-1.31000E-001	1.19758E-004	9	...........
	2550	51.02	-1.05060E-001	-1.40302E-005	0.00000E+000	-1.05000E-001	1.13002E-004	9	...........
	2576	51.54	-7.91043E-002	-1.19089E-005	0.00000E+000	-7.90000E-002	1.25095E-004	9	...........
	2602	52.06	-5.30861E-002	-1.23940E-005	0.00000E+000	-5.30000E-002	1.11834E-004	9	...........
	2628	52.58	-2.71121E-002	-1.05285E-005	0.00000E+000	-2.70000E-002	1.23177E-004	9	...........
	2654	53.1	-1.14106E-003	-8.76466E-006	0.00000E+000	-9.99995E-004	1.12001E-004	9	...........
	2680	53.62	2.47307E-002	-6.55723E-006	0.00000E+000	2.50000E-002	1.15754E-004	9	...........
	2706	54.14	5.07494E-002	-3.41533E-006	0.00000E+000	5.10000E-002	1.09749E-004	9	...........
	2732	54.66	7.67963E-002	-1.16004E-006	0.00000E+000	7.70000E-002	1.16338E-004	9	...........
	2758	55.18	1.02705E-001	1.14147E-006	0.00000E+000	1.03000E-001	1.16171E-004	9	...........
	2784	55.7	1.28604E-001	3.61662E-006	0.00000E+000	1.29000E-001	1.12251E-004	9	...........
	2810	56.22	1.54670E-001	5.81587E-006	0.00000E+000	1.55000E-001	1.17672E-004	9	...........
	2836	56.74	1.80770E-001	9.76131E-006	0.00000E+000	1.81000E-001	1.18924E-004	9	...........
	2862	57.26	2.06630E-001	1.07724E-005	0.00000E+000	2.07000E-001	1.12335E-004	9	...........
	2888	57.78	2.32580E-001	1.38347E-005	0.00000E+000	2.33000E-001	1.19758E-004	9	...........
	2914	58.3	2.58555E-001	1.54413E-005	0.00000E+000	2.59000E-001	1.30683E-004	9	...........
	2940	58.82	2.84703E-001	1.83860E-005	0.00000E+000	2.85000E-001	1.19674E-004	9	...........
	2966	59.34	3.10546E-001	2.12413E-005	0.00000E+000	3.11000E-001	1.41108E-004	9	...........
	2992	59.86	3.36539E-001	2.30150E-005	0.00000E+000	3.37000E-001	1.19341E-004	9	...........
	3018	60.38	3.62492E-001	2.56026E-005	0.00000E+000	3.63000E-001	1.22260E-004	9	...........
	3044	60.9	3.88534E-001	2.89161E-005	0.00000E+000	3.89000E-001	1.23260E-004	9	...........
[...]
	13288	265.78	-5.66520E-001	-2.05187E-005	0.00000E+000	-5.67000E-001	1.14336E-004	9	...........
	13296	265.94	-5.58600E-001	-1.43390E-005	0.00000E+000	-5.59000E-001	1.11668E-004	9	...........
	13304	266.1	-5.50664E-001	-1.45627E-005	0.00000E+000	-5.51000E-001	1.12335E-004	9	...........
	13312	266.26	-5.42457E-001	-1.32047E-005	0.00000E+000	-5.43000E-001	1.16004E-004	9	...........
	13320	266.42	-5.34591E-001	-2.46753E-005	0.00000E+000	-5.35000E-001	1.13252E-004	9	...........
	13328	266.58	-5.26677E-001	-1.35662E-005	0.00000E+000	-5.27000E-001	1.11334E-004	9	...........
	13336	266.74	-5.18572E-001	-1.23022E-005	0.00000E+000	-5.19000E-001	1.15337E-004	9	...........
	13344	266.9	-5.10608E-001	-1.16015E-005	0.00000E+000	-5.11000E-001	1.14670E-004	9	...........
	13352	267.06	-5.02706E-001	-9.13781E-006	0.00000E+000	-5.03000E-001	1.08915E-004	9	...........
	13360	267.22	-4.94618E-001	-1.30327E-005	0.00000E+000	-4.95000E-001	1.08332E-004	9	...........
	13368	267.38	-4.86598E-001	-7.65269E-006	0.00000E+000	-4.87000E-001	1.13085E-004	9	...........
	13376	267.54	-4.78713E-001	-1.26145E-005	0.00000E+000	-4.79000E-001	1.07998E-004	9	...........
	13384	267.7	-4.70632E-001	-7.13924E-006	0.00000E+000	-4.71000E-001	1.07581E-004	9	...........
	13392	267.86	-4.62697E-001	-9.29579E-006	0.00000E+000	-4.63000E-001	1.08832E-004	9	...........
	13400	268.02	-4.54706E-001	-8.06655E-006	0.00000E+000	-4.55000E-001	1.05663E-004	9	...........
	13408	268.18	-4.46617E-001	-8.46623E-006	0.00000E+000	-4.47000E-001	1.15754E-004	9	...........
	13416	268.34	-4.38647E-001	-6.77242E-006	0.00000E+000	-4.39000E-001	1.09833E-004	9	...........
	13424	268.5	-4.30752E-001	-7.09120E-006	0.00000E+000	-4.31000E-001	1.08498E-004	9	...........
	13432	268.66	-4.22767E-001	-9.30012E-006	0.00000E+000	-4.23000E-001	1.11501E-004	9	...........
	13440	268.82	-4.14637E-001	-1.01732E-005	0.00000E+000	-4.15000E-001	1.13586E-004	9	...........
	13448	268.98	-4.06813E-001	-1.09489E-005	0.00000E+000	-4.07000E-001	1.10667E-004	9	...........
	13456	269.14	-3.98816E-001	-1.20280E-005	0.00000E+000	-3.99000E-001	1.10250E-004	9	...........
	13464	269.3	-3.90744E-001	-1.36616E-005	0.00000E+000	-3.91000E-001	1.06330E-004	9	...........
	13472	269.46	-3.82800E-001	-1.35405E-005	0.00000E+000	-3.83000E-001	1.05663E-004	9	...........
	13480	269.62	-3.74838E-001	-1.42786E-005	0.00000E+000	-3.75000E-001	1.06663E-004	9	...........
	13488	269.78	-3.66826E-001	-1.64470E-005	0.00000E+000	-3.67000E-001	1.10583E-004	9	...........
	13496	269.94	-3.58807E-001	-1.73580E-005	0.00000E+000	-3.59000E-001	1.07831E-004	9	...........
	13504	270.1	-3.50851E-001	-1.86663E-005	0.00000E+000	-3.51000E-001	1.13085E-004	9	...........
	13512	270.26	-3.42780E-001	-1.73331E-005	0.00000E+000	-3.43000E-001	1.14837E-004	9	...........
	13520	270.42	-3.34829E-001	-1.74824E-005	0.00000E+000	-3.35000E-001	1.11084E-004	9	...........
	13528	270.58	-3.26859E-001	-1.71743E-005	0.00000E+000	-3.27000E-001	1.12668E-004	9	...........
	13536	270.74	-3.18863E-001	-1.76821E-005	0.00000E+000	-3.19000E-001	1.16421E-004	9	...........
	13544	270.9	-3.10863E-001	-1.78934E-005	0.00000E+000	-3.11000E-001	1.12001E-004	9	...........
	13552	271.06	-3.02909E-001	-1.79602E-005	0.00000E+000	-3.03000E-001	1.12085E-004	9	...........
	13560	271.22	-2.94916E-001	-1.88454E-005	0.00000E+000	-2.95000E-001	1.11417E-004	9	...........
	13568	271.38	-2.86845E-001	-1.78125E-005	0.00000E+000	-2.87000E-001	1.11417E-004	9	...........
	13576	271.54	-2.78935E-001	-1.80976E-005	0.00000E+000	-2.79000E-001	1.19591E-004	9	...........
	13584	271.7	-2.70938E-001	-1.80374E-005	0.00000E+000	-2.71000E-001	1.10417E-004	9	...........
	13592	271.86	-2.62944E-001	-1.74289E-005	0.00000E+000	-2.63000E-001	1.17923E-004	9	...........
	13600	272.02	-2.54947E-001	-1.74108E-005	0.00000E+000	-2.55000E-001	1.13336E-004	9	...........
	13608	272.18	-2.46942E-001	-1.72956E-005	0.00000E+000	-2.47000E-001	1.12418E-004	9	...........
	13616	272.34	-2.38940E-001	-1.55954E-005	0.00000E+000	-2.39000E-001	1.08665E-004	9	...........
	13624	272.5	-2.30914E-001	-1.69922E-005	0.00000E+000	-2.31000E-001	1.08081E-004	9	...........
	13632	272.66	-2.22962E-001	-1.67126E-005	0.00000E+000	-2.23000E-001	1.12335E-004	9	...........
	13640	272.82	-2.14998E-001	-1.69286E-005	0.00000E+000	-2.15000E-001	1.09583E-004	9	...........
	13648	272.98	-2.06958E-001	-1.68190E-005	0.00000E+000	-2.07000E-001	1.07998E-004	9	...........
	13656	273.14	-1.99014E-001	-1.63443E-005	0.00000E+000	-1.99000E-001	1.17005E-004	9	...........
	13664	273.3	-1.91035E-001	-1.66594E-005	0.00000E+000	-1.91000E-001	1.18423E-004	9	...........
	13672	273.46	-1.82993E-001	-1.68442E-005	0.00000E+000	-1.83000E-001	1.13002E-004	9	...........
	13680	273.62	-1.75016E-001	-1.54588E-005	0.00000E+000	-1.75000E-001	1.14837E-004	9	...........
	13688	273.78	-1.67043E-001	-1.51437E-005	0.00000E+000	-1.67000E-001	1.12752E-004	9	...........
	13696	273.94	-1.59002E-001	-1.56428E-005	0.00000E+000	-1.59000E-001	1.16338E-004	9	...........
	13704	274.1	-1.51034E-001	-1.55841E-005	0.00000E+000	-1.51000E-001	1.16255E-004	9	...........
	13712	274.26	-1.43043E-001	-1.57841E-005	0.00000E+000	-1.43000E-001	1.19507E-004	9	...........
	13720	274.42	-1.35024E-001	-1.51732E-005	0.00000E+000	-1.35000E-001	1.16255E-004	9	...........
	13728	274.58	-1.27054E-001	-1.69047E-005	0.00000E+000	-1.27000E-001	1.14253E-004	9	...........
	13736	274.74	-1.19053E-001	-1.51534E-005	0.00000E+000	-1.19000E-001	1.16672E-004	9	...........
	13744	274.9	-1.11035E-001	-1.46816E-005	0.00000E+000	-1.11000E-001	1.15504E-004	9	...........
	13752	275.06	-1.03038E-001	-1.52601E-005	0.00000E+000	-1.03000E-001	1.13336E-004	9	...........
	13760	275.22	-9.50792E-002	-1.46650E-005	0.00000E+000	-9.50000E-002	1.14670E-004	9	...........
	13768	275.38	-8.70634E-002	-1.42766E-005	0.00000E+000	-8.70000E-002	1.17756E-004	9	...........
	13776	275.54	-7.90356E-002	-1.44915E-005	0.00000E+000	-7.90000E-002	1.21092E-004	9	...........
	13784	275.7	-7.10909E-002	-1.60904E-005	0.00000E+000	-7.10000E-002	1.17923E-004	9	...........
	13792	275.86	-6.30952E-002	-1.39814E-005	0.00000E+000	-6.30000E-002	1.20258E-004	9	...........
	13800	276.02	-5.50859E-002	-1.46808E-005	0.00000E+000	-5.50000E-002	1.22760E-004	9	...........
	13808	276.18	-4.70823E-002	-1.29340E-005	0.00000E+000	-4.70000E-002	1.18340E-004	9	...........
	13816	276.34	-3.91024E-002	-1.30707E-005	0.00000E+000	-3.90000E-002	1.20675E-004	9	...........
	13824	276.5	-3.10633E-002	-1.28706E-005	0.00000E+000	-3.10000E-002	1.20425E-004	9	...........
	13832	276.66	-2.31068E-002	-1.29106E-005	0.00000E+000	-2.30000E-002	1.27764E-004	9	...........
	13840	276.82	-1.51241E-002	-1.25199E-005	0.00000E+000	-1.50000E-002	1.22260E-004	9	...........
	13848	276.98	-7.09626E-003	-1.15261E-005	0.00000E+000	-7.00000E-003	1.18673E-004	9	...........
	13856	277.14	7.66756E-004	-1.20929E-005	0.00000E+000	1.00000E-003	1.19924E-004	9	...........
	13864	277.3	8.79974E-003	-1.10610E-005	0.00000E+000	9.00000E-003	1.21509E-004	9	...........
	13872	277.46	1.67166E-002	-1.07744E-005	0.00000E+000	1.70000E-002	1.12001E-004	9	...........
	13880	277.62	2.48020E-002	-1.01809E-005	0.00000E+000	2.50000E-002	1.16922E-004	9	...........
	13888	277.78	3.27829E-002	-9.86712E-006	0.00000E+000	3.30000E-002	1.07748E-004	9	...........
	13896	277.94	4.06991E-002	-9.10829E-006	0.00000E+000	4.10000E-002	1.12585E-004	9	...........
	13904	278.1	4.87650E-002	-8.94465E-006	0.00000E+000	4.90000E-002	1.19341E-004	9	...........
	13912	278.26	5.67607E-002	-9.01404E-006	0.00000E+000	5.70000E-002	1.10667E-004	9	...........
	13920	278.42	6.47316E-002	-7.60481E-006	0.00000E+000	6.50000E-002	1.08415E-004	9	...........
	13928	278.58	7.27480E-002	-7.00946E-006	0.00000E+000	7.30000E-002	1.06080E-004	9	...........
	13936	278.74	8.07262E-002	-5.83260E-006	0.00000E+000	8.10000E-002	1.06747E-004	9	...........
	13944	278.9	8.87285E-002	-5.28896E-006	0.00000E+000	8.90000E-002	1.08915E-004	9	...........
	13952	279.06	9.67021E-002	-4.49127E-006	0.00000E+000	9.70000E-002	1.08749E-004	9	...........
	13960	279.22	1.04679E-001	-4.29093E-006	0.00000E+000	1.05000E-001	1.11918E-004	9	...........
	13968	279.38	1.12698E-001	-1.58824E-006	0.00000E+000	1.13000E-001	1.14587E-004	9	...........
	13976	279.54	1.20656E-001	-2.76410E-006	0.00000E+000	1.21000E-001	1.09916E-004	9	...........
	13984	279.7	1.28634E-001	8.82075E-007	0.00000E+000	1.29000E-001	1.11834E-004	9	...........
	13992	279.86	1.36671E-001	-1.00807E-006	0.00000E+000	1.37000E-001	1.13753E-004	9	...........
	14000	280.02	1.44626E-001	-1.24468E-007	0.00000E+000	1.45000E-001	1.12835E-004	9	...........